ax,ay,az,gx,gy,gz,ax,ay,az,gx,gy,gz,ax,ay,az,gx,gy,gz
32767,31382,562,-40,-65,20,23104,22878,-752,96,-42,-17,9276,10406,-6510,176,-21,52
32767,31164,662,-15,-69,26,23150,23036,-652,78,-36,-5,9626,10530,-6436,101,-19,49
32767,31418,1004,41,-67,30,23206,23184,-788,37,-29,-3,9766,10584,-6402,32,17,26
32767,31948,1398,82,-47,24,23282,23202,-864,-32,-21,-23,9586,10552,-6344,-43,57,-6
32767,32506,1464,78,-36,30,23110,23102,-1022,-97,-3,-31,9388,10476,-6432,-115,53,-18
32767,32666,1410,11,-28,27,22816,22674,-1112,-143,-10,-26,9434,10198,-6544,-187,36,-11
32767,32392,1378,-108,-14,18,22822,22312,-1244,-155,-27,-28,9600,9718,-6696,-254,43,-2
32767,31974,1342,-145,2,8,22992,22026,-1504,-138,-42,-25,9560,9190,-6742,-280,58,2
32767,31806,1330,-144,3,-3,22908,21868,-1546,-82,-47,-5,9512,8614,-6802,-244,51,0
32767,31688,1192,-134,18,-10,22924,21932,-1716,-41,-52,3,9494,8418,-6768,-181,32,4
32767,31660,918,-120,26,-11,22912,21996,-1622,-12,-54,5,9526,8322,-6698,-98,21,11
32767,31762,844,-124,24,-15,22972,22058,-1640,2,-57,4,9514,8444,-6692,-1,14,18
32767,31642,636,-145,12,-13,22940,22140,-1558,4,-57,3,9510,8662,-6720,81,1,23
32767,31338,460,-145,-5,-6,22986,22166,-1434,0,-55,3,9602,8948,-6730,125,-11,22
32767,31124,466,-70,-22,6,23056,22330,-1360,-1,-52,3,9640,9236,-6684,130,1,17
32767,31322,574,-20,-31,13,23010,22466,-1252,-8,-49,0,9592,9466,-6714,108,16,12
32767,31576,652,-11,-37,22,23012,22658,-1112,-13,-57,6,9506,9666,-6648,78,21,15
32767,31946,832,-55,-56,23,23016,22656,-1058,-10,-59,9,9498,9842,-6596,36,14,11
32767,31804,970,-114,-64,24,23022,22678,-1054,-10,-57,5,9566,9942,-6622,-4,22,7
32767,31668,1032,-107,-72,30,22998,22664,-1090,-2,-56,6,9480,9948,-6718,-31,40,13
32767,31666,1096,-72,-63,28,23052,22738,-1138,-6,-56,4,9398,9896,-6586,-51,48,19
32767,31682,1166,-30,-46,29,23112,22764,-1128,-19,-54,4,9354,9688,-6602,-70,37,23
32767,31972,1146,-3,-39,29,23014,22676,-1226,-48,-50,9,9446,9476,-6562,-73,27,25
32767,32232,1156,-54,-37,17,22986,22438,-1206,-65,-51,11,9568,9356,-6564,-63,30,27
32767,32036,1032,-108,-38,7,22988,22190,-1280,-41,-57,11,9522,9298,-6648,-38,35,30
32767,31720,1212,-112,-35,4,22908,22148,-1276,-18,-57,6,9432,9376,-6600,-11,30,31
32767,31536,1124,-73,-30,10,23022,22230,-1354,5,-54,7,9420,9446,-6602,-5,19,30
32767,31648,976,-46,-26,13,23118,22378,-1302,22,-49,9,9544,9400,-6596,-5,20,23
32767,31632,940,-53,-23,10,23046,22430,-1390,17,-43,4,9532,9336,-6630,-5,26,13
32767,31574,804,-54,-26,17,23046,22542,-1394,-2,-41,3,9530,9302,-6718,9,25,10
32767,31658,794,-55,-37,22,22982,22524,-1330,-14,-47,6,9558,9350,-6730,28,24,11
32767,31634,918,-82,-42,23,22976,22542,-1152,-20,-59,9,9594,9402,-6742,38,29,6
32767,31462,840,-64,-51,30,23098,22602,-1152,-8,-61,14,9580,9410,-6700,41,34,2
32767,31570,926,-16,-56,29,23090,22688,-1220,-18,-57,23,9508,9514,-6654,46,41,4
32767,32050,1088,-5,-52,28,23078,22586,-1212,-8,-54,27,9414,9580,-6564,49,34,13
32767,32422,1270,-54,-50,28,23104,22544,-1296,1,-56,20,9392,9598,-6620,66,21,18
32767,32118,1118,-124,-46,27,23132,22518,-1184,8,-50,17,9538,9602,-6698,89,9,25
32767,31660,1028,-128,-43,26,23022,22618,-1126,9,-54,20,9578,9646,-6690,101,15,28
32767,31512,930,-79,-46,22,22988,22786,-1174,-5,-51,18,9578,9678,-6668,88,33,27
32767,31868,946,-33,-56,17,23028,22766,-1136,-29,-55,18,9450,9726,-6540,62,41,17
32767,32082,1034,-57,-51,17,23072,22622,-1054,-38,-49,8,9372,9870,-6584,40,33,7
32767,31870,1164,-87,-36,25,23036,22566,-1156,-42,-47,-4,9454,10080,-6674,-21,28,3
32767,31676,1068,-84,-36,24,23050,22550,-1112,-33,-51,1,9464,9986,-6882,-55,30,7
32767,31612,1088,-69,-33,20,23080,22580,-1132,-17,-56,-6,9412,9846,-6808,-90,36,9
32767,31668,1152,-47,-21,20,23146,22732,-1216,-18,-51,-14,9412,9670,-6740,-121,35,8
32767,31996,1210,-65,-26,20,23066,22706,-1174,-20,-47,-2,9476,9576,-6610,-129,35,8
32767,31876,1136,-116,-16,12,23192,22732,-1242,-19,-47,-1,9450,9526,-6714,-112,29,13
32767,31594,1084,-92,-11,12,23120,22760,-1320,-27,-37,-2,9498,9400,-6624,-79,22,14
32767,31840,962,-53,-4,15,23070,22652,-1398,-30,-32,-3,9600,9446,-6716,-33,22,16
32767,32062,962,-55,-5,19,23000,22608,-1390,-45,-29,-9,9514,9660,-6776,-1,27,15
32767,32076,994,-84,-11,13,23058,22576,-1384,-52,-32,-6,9540,9712,-6798,-18,34,11
32767,31804,944,-109,-16,5,23108,22526,-1306,-58,-43,-4,9604,9728,-6932,-48,37,6
32767,31624,864,-98,-18,4,23106,22548,-1182,-60,-46,-5,9648,9616,-6886,-79,39,0
32767,31810,948,-75,-23,6,23000,22508,-1198,-51,-44,-2,9632,9512,-6788,-97,41,-5
32767,31786,1086,-67,-34,13,22940,22428,-1250,-31,-43,-5,9464,9484,-6622,-89,51,-2
32767,31736,1140,-69,-29,15,23090,22480,-1304,0,-37,-14,9260,9468,-6572,-58,49,3
32767,31706,1078,-69,-26,15,23076,22612,-1176,1,-33,-17,9274,9576,-6534,-29,28,9
32767,31668,878,-82,-29,10,22952,22658,-1246,-14,-39,-5,9556,9536,-6768,-6,4,14
32767,31642,848,-87,-24,5,22982,22636,-1122,-27,-54,4,9686,9534,-6874,-4,10,11
32767,31706,972,-65,-25,6,23058,22586,-1218,-32,-56,-1,9646,9434,-6764,-15,35,1
32767,31880,1254,-53,-28,13,23078,22570,-1318,-40,-50,-8,9390,9644,-6606,-29,49,-6
32767,31824,1294,-54,-27,16,23078,22572,-1308,-37,-43,-11,9316,9702,-6654,-42,36,0
32767,31908,1032,-65,-22,13,23218,22552,-1288,-34,-40,-15,9396,9672,-6772,-35,13,8
32767,31804,880,-90,-18,7,22998,22544,-1198,-17,-42,-10,9572,9580,-6754,-28,1,12
32767,31744,796,-102,-19,10,23124,22700,-1296,-11,-46,-2,9734,9468,-6792,-31,16,9
32767,31566,936,-71,-22,14,23190,22692,-1248,-17,-33,-10,9568,9524,-6840,-22,45,2
32767,31670,974,-48,-28,10,23060,22678,-1280,-44,-30,-16,9294,9700,-6620,-25,51,-9
32767,31918,1004,-38,-32,12,23032,22606,-1260,-58,-39,-16,9332,9618,-6682,-51,31,-6
32767,31952,974,-55,-31,11,23050,22402,-1136,-42,-45,-13,9512,9558,-6724,-41,15,3
32767,31924,930,-69,-33,6,22946,22408,-1188,-14,-47,-11,9652,9468,-6706,-20,18,8
32767,31852,942,-103,-36,5,22992,22518,-1294,7,-45,-7,9688,9506,-6760,-10,28,7
32767,31668,1026,-92,-34,9,23022,22656,-1248,18,-49,-7,9486,9588,-6780,-15,45,2
32767,31668,1156,-64,-33,11,23062,22848,-1204,1,-48,-8,9388,9698,-6658,-35,48,-1
32767,31686,1046,-52,-31,8,23086,22772,-1244,-26,-48,-8,9288,9632,-6840,-44,32,2
32767,31706,948,-36,-30,9,22968,22608,-1236,-45,-48,-15,9468,9408,-6758,-34,11,-1
32767,32080,986,-40,-30,15,23094,22528,-1212,-42,-52,-16,9568,9386,-6700,-20,17,1
32767,31984,1056,-92,-32,13,23154,22526,-1190,-20,-43,-12,9512,9526,-6736,-8,37,4
32767,31624,1156,-98,-31,9,22948,22568,-1272,-11,-40,-13,9376,9564,-6762,6,34,7
32767,31550,1102,-62,-26,8,22978,22586,-1288,0,-48,-5,9468,9662,-6650,5,14,4
32767,31772,1034,-37,-20,8,23068,22660,-1310,5,-54,-10,9480,9662,-6662,-2,2,9
32767,32078,1044,-59,-25,3,23114,22718,-1268,-17,-39,-16,9540,9594,-6742,-7,16,8
32767,31884,1006,-97,-28,6,23086,22680,-1314,-27,-35,-16,9514,9600,-6754,-11,32,2
32767,31666,930,-82,-27,10,23056,22674,-1224,-40,-39,-18,9444,9572,-6768,-24,35,-4
32767,31648,978,-54,-25,11,22998,22564,-1158,-44,-42,-16,9474,9580,-6800,-34,31,-2
32767,31820,910,-50,-24,6,22978,22410,-1198,-29,-54,-12,9456,9580,-6770,-38,26,0
32767,31832,886,-57,-24,4,23012,22426,-1126,3,-59,-13,9544,9552,-6644,-35,19,2
32767,31890,1028,-64,-30,6,23128,22578,-1174,27,-53,-11,9564,9528,-6768,-28,22,6
32767,31942,986,-81,-38,2,23006,22692,-1242,35,-51,-6,9502,9506,-6810,-23,33,7
32767,31616,1102,-83,-32,6,23022,22760,-1134,17,-59,-10,9382,9462,-6818,-19,33,4
32767,31626,1134,-48,-23,5,23122,22702,-1244,-5,-55,-13,9352,9552,-6720,-20,23,0
32767,31744,1108,-27,-19,6,23088,22718,-1240,-27,-53,-15,9428,9602,-6692,-8,-2,12
32767,31914,1048,-33,-22,7,23096,22518,-1380,-28,-43,-17,9582,9560,-6678,9,-2,21
32767,31966,1100,-62,-21,-2,23072,22528,-1446,-20,-41,-14,9572,9586,-6758,13,11,19
32767,31844,1116,-85,-23,-6,23068,22564,-1404,-17,-44,-16,9456,9656,-6686,4,22,12
32767,31768,1086,-83,-19,-7,23186,22568,-1362,-22,-44,-15,9454,9736,-6648,-17,14,8
32767,31772,970,-70,-12,-2,23172,22622,-1342,-36,-41,-19,9496,9750,-6746,-35,5,9
32767,31792,860,-66,-11,3,23084,22634,-1246,-45,-37,-21,9608,9612,-6806,-44,12,6
32767,31876,912,-69,-12,5,22912,22576,-1206,-39,-36,-16,9680,9568,-6784,-50,26,0
32767,31788,944,-69,-17,2,22888,22548,-1214,-32,-43,-12,9632,9492,-6720,-57,41,-13
32767,31822,892,-63,-25,2,23002,22474,-1262,-21,-48,-10,9518,9482,-6678,-56,42,-11
32767,31838,854,-81,-33,-5,23082,22572,-1210,-20,-47,-13,9404,9506,-6706,-48,37,-5
32767,31768,910,-88,-40,-3,23124,22570,-1270,-27,-48,-17,9254,9468,-6748,-31,26,1
32767,31716,950,-80,-40,4,23240,22534,-1150,-35,-41,-20,9406,9370,-6792,-10,16,2
32767,31704,1116,-53,-35,8,23082,22490,-1224,-29,-37,-20,9464,9426,-6782,3,16,-2
32767,31938,1070,-48,-29,7,22846,22500,-1210,-18,-45,-16,9470,9512,-6732,2,19,-3
32767,31898,1014,-91,-23,2,22934,22596,-1228,2,-55,-6,9552,9564,-6580,0,12,0
32767,31620,1062,-108,-27,0,23052,22692,-1290,0,-52,-12,9594,9684,-6618,-7,11,8
32767,31528,1012,-96,-32,0,23088,22768,-1424,-21,-35,-18,9564,9706,-6760,-12,21,9
32767,31576,1092,-67,-32,6,23198,22646,-1364,-45,-31,-20,9428,9660,-6774,-29,27,4
32767,31788,1134,-46,-31,5,23234,22506,-1240,-46,-30,-25,9378,9618,-6780,-58,32,-6
32767,31966,1074,-51,-27,4,23088,22436,-1170,-47,-28,-21,9320,9564,-6788,-73,34,-7
32767,31944,914,-74,-23,1,22922,22432,-1124,-34,-34,-10,9430,9558,-6690,-58,23,-1
32767,31840,836,-94,-21,-2,22892,22478,-1274,-13,-44,-5,9600,9508,-6612,-45,14,5
32767,31732,846,-92,-24,-2,22960,22538,-1244,-3,-47,-4,9730,9514,-6744,-43,25,8
32767,31610,986,-71,-33,-2,22982,22654,-1296,-13,-40,-11,9538,9574,-6682,-46,51,4
32767,31644,954,-39,-42,1,23010,22552,-1284,-42,-47,-17,9340,9550,-6690,-53,48,-1
32767,31834,1160,-25,-38,5,23124,22374,-1186,-40,-48,-16,9274,9480,-6726,-55,33,0
32767,31882,1204,-41,-35,3,23090,22232,-1322,-18,-47,-19,9360,9480,-6734,-45,19,6
32767,32030,1124,-84,-32,0,22930,22338,-1130,9,-49,-20,9414,9378,-6730,-34,9,11
32767,31722,954,-132,-27,-4,22922,22566,-1212,40,-54,-14,9590,9338,-6772,-26,9,9
32767,31464,974,-120,-21,1,23020,22710,-1158,42,-58,-13,9534,9372,-6746,-12,14,5
32767,31276,940,-57,-15,8,22984,22800,-1184,16,-51,-9,9434,9472,-6798,-6,17,10
32767,31614,1062,-31,-22,7,23016,22688,-1260,-14,-56,-7,9384,9602,-6698,4,10,20
32767,31740,980,-40,-28,8,23096,22562,-1254,-27,-64,-17,9452,9510,-6550,17,-2,18
32767,31904,1012,-58,-26,6,23198,22546,-1380,-27,-54,-18,9448,9488,-6556,27,-3,18
32767,31794,1068,-78,-22,4,22992,22506,-1394,-19,-46,-15,9494,9502,-6714,43,1,14
32767,31728,1136,-67,-14,4,22928,22558,-1418,-12,-53,-13,9568,9536,-6748,51,-6,13
32767,31782,1148,-45,-6,8,23082,22690,-1312,8,-51,-10,9630,9774,-6712,31,-6,14
32767,31840,1114,-58,-5,12,23050,22722,-1296,-4,-40,-12,9646,9834,-6804,-2,10,14
32767,31838,910,-79,-15,4,22994,22698,-1268,-21,-36,-15,9550,9804,-6818,-30,28,11
32767,31718,806,-101,-21,-2,22994,22634,-1204,-44,-47,-16,9496,9620,-6850,-61,28,7
32767,31622,776,-77,-23,-1,22988,22484,-1096,-44,-53,-16,9472,9356,-6862,-68,33,5
32767,31630,870,-40,-22,3,23040,22348,-1112,-22,-52,-13,9396,9322,-6650,-46,36,8
32767,31840,878,-19,-23,3,23024,22398,-1140,9,-54,-6,9452,9448,-6668,-22,23,14
32767,32008,856,-45,-31,1,23006,22536,-1238,28,-53,1,9436,9430,-6698,5,2,20
32767,31802,906,-85,-36,3,22952,22682,-1184,10,-58,-5,9598,9498,-6706,23,-1,20
32767,31544,1132,-78,-43,0,23060,22694,-1348,-19,-54,-8,9524,9602,-6582,21,19,22
32767,31692,1186,-50,-32,-3,23096,22616,-1342,-45,-49,-12,9394,9688,-6422,6,23,25
32767,31802,1122,-52,-27,2,23098,22510,-1388,-50,-42,-15,9450,9694,-6572,-3,3,24
32767,31846,1120,-56,-21,7,23046,22486,-1386,-39,-40,-16,9678,9644,-6724,-12,1,17
32767,31778,1038,-61,-14,4,23042,22504,-1356,-34,-45,-15,9634,9632,-6718,-35,25,9
32767,31738,1050,-66,-14,1,23074,22574,-1224,-16,-48,-8,9504,9612,-6656,-59,37,4
32767,31760,966,-78,-17,4,22984,22664,-1208,-13,-49,-7,9486,9588,-6614,-73,24,5
32767,31656,882,-88,-18,8,23074,22620,-1280,-22,-53,-4,9612,9554,-6692,-67,14,5
32767,31514,844,-74,-23,11,23164,22536,-1264,-28,-49,-1,9660,9490,-6786,-49,29,1
32767,31684,856,-59,-30,10,22972,22526,-1252,-23,-48,-5,9528,9426,-6720,-41,47,-4
32767,31798,962,-52,-36,14,22982,22598,-1222,-25,-57,-4,9396,9454,-6736,-31,40,-4
32767,31926,1090,-71,-41,11,23116,22614,-1208,-23,-62,1,9466,9502,-6676,-2,13,3
32767,31826,1106,-95,-42,12,23046,22596,-1166,-25,-56,1,9616,9502,-6674,2,14,4
32767,31636,1004,-88,-40,12,23042,22596,-1238,-26,-57,-3,9608,9518,-6602,12,24,5
32767,31618,1006,-55,-33,14,23126,22534,-1324,-31,-53,-7,9532,9572,-6680,20,28,8
32767,31784,900,-43,-34,14,23048,22594,-1306,-26,-43,-5,9572,9668,-6762,9,29,2
32767,31874,1068,-59,-34,15,22976,22598,-1208,-25,-38,-6,9546,9706,-6808,-14,35,-5
32767,31872,1142,-81,-41,13,23034,22610,-1210,-30,-43,-6,9456,9666,-6692,-29,40,-3
32767,31574,1094,-85,-39,13,23054,22540,-1026,-33,-47,-4,9486,9634,-6612,-33,34,2
32767,31634,1028,-66,-36,13,23042,22402,-1076,-31,-44,-3,9480,9524,-6578,-36,32,-5
32767,31788,870,-56,-39,13,23048,22284,-1068,-23,-40,5,9480,9464,-6692,-25,32,-8
32767,31868,776,-77,-43,16,23040,22232,-1116,-3,-29,11,9522,9408,-6776,-5,27,-6
32767,31752,838,-93,-50,17,23076,22276,-1214,33,-17,13,9572,9512,-6658,1,36,-5
32767,31586,1088,-82,-55,17,23058,22408,-1136,55,-5,5,9482,9542,-6484,-3,48,-7
32767,31528,1202,-50,-55,17,22892,22636,-1186,37,-8,-3,9358,9496,-6346,5,44,-5
32767,31654,1208,-25,-50,19,22862,22786,-1250,9,-16,4,9358,9526,-6364,15,28,-9
32767,31700,1126,-24,-52,27,22892,22812,-1294,-4,-38,14,9438,9588,-6302,28,27,-14
32767,31628,1138,-26,-65,35,22998,22754,-1266,-18,-54,12,9498,9562,-6584,44,26,-20
32767,31552,1260,-17,-91,39,23074,22720,-1332,-20,-62,18,9560,9634,-6800,43,26,-23
32767,31862,1156,-51,-132,51,23130,22702,-1402,-14,-64,25,9554,9586,-7020,14,32,-34
32767,31952,1056,-123,-154,45,23164,22686,-1518,1,-62,28,9570,9542,-6948,-28,40,-48
32767,31750,1058,-172,-134,44,23146,22732,-1520,15,-58,28,9520,9472,-6942,-50,43,-52
32767,31606,1336,-124,-76,42,23114,22786,-1410,10,-59,29,9512,9346,-6854,-34,36,-42
32767,31712,1392,-85,-52,46,23260,22846,-1486,-1,-46,24,9544,9212,-6840,6,30,-30
32767,31976,1294,-69,-45,45,23204,22842,-1586,-3,-36,26,9450,9222,-6716,60,22,-24
32767,31968,1144,-70,-40,42,23054,22706,-1590,-6,-35,25,9442,9264,-6790,120,12,-20
32767,32008,1044,-76,-56,37,23020,22632,-1592,-5,-42,24,9546,9448,-6808,170,6,-15
32767,32038,914,-90,-65,35,23122,22642,-1512,2,-44,33,9590,9642,-6848,168,14,-19
32767,32020,918,-108,-76,32,23096,22702,-1562,15,-34,45,9666,9736,-6946,141,30,-22
32767,31820,846,-111,-68,37,23156,22700,-1590,33,-30,53,9638,9780,-6904,111,46,-22
32767,31714,908,-80,-70,41,23194,22784,-1488,39,-30,54,9588,9756,-7018,79,57,-21
32767,31652,964,-53,-87,33,23168,22908,-1258,36,-26,48,9608,9662,-7046,34,67,-32
32767,31806,1022,-19,-110,32,22954,23070,-1190,15,-25,46,9508,9518,-6960,-7,84,-44
32767,32116,1034,-1,-131,32,22808,23112,-1002,-11,-34,46,9420,9394,-6902,-17,84,-49
32767,31966,1092,-38,-130,34,22680,23096,-828,-25,-47,42,9456,9268,-6942,3,66,-50
32767,32004,1152,-50,-151,34,23142,22966,-784,-37,-77,37,9580,9246,-6918,28,65,-52
32767,32046,1092,-53,-183,34,23416,22872,-960,-37,-70,32,9492,9370,-6914,59,81,-48
32767,32028,1172,-63,-201,30,23286,22762,-990,-32,-49,26,9224,9536,-6924,90,97,-43
32767,31902,1456,-63,-187,42,23038,22820,-1216,-22,-50,24,9064,9650,-6952,107,87,-41
32767,31954,1556,-57,-192,37,23130,22872,-1380,-9,-51,22,9114,9734,-6934,97,62,-44
32767,31904,2126,-56,-185,34,23230,22904,-1438,7,-40,16,9384,9726,-6796,65,43,-46
32767,31962,2112,-66,-174,34,23158,22962,-1498,10,-12,11,9464,9762,-6740,43,47,-36
32767,31932,1756,-91,-147,11,23098,23042,-1524,2,0,11,9386,9708,-6830,35,55,-20
32767,31850,1690,-121,-120,21,23132,23130,-1544,-27,-1,-2,9322,9666,-6864,29,55,-20
32767,31798,1638,-111,-97,27,23096,23176,-1420,-43,-8,-11,9230,9726,-7038,11,55,-32
32767,31640,1432,-87,-83,32,23062,23014,-1430,-64,-22,-1,9242,9692,-7146,-19,56,-41
32767,31728,1266,-42,-89,29,23166,22916,-1414,-39,-19,4,9310,9646,-7226,-47,58,-49
32767,32192,1230,-49,-93,32,23044,22846,-1376,-7,-19,15,9474,9512,-7218,-68,61,-59
32767,32148,1170,-101,-86,33,22906,22928,-1284,11,-34,22,9570,9396,-7294,-83,69,-60
32767,31984,1446,-134,-115,36,22970,22924,-1264,25,-47,22,9512,9330,-7344,-84,85,-53
32767,31754,1626,-118,-131,33,23020,22988,-1138,27,-59,25,9300,9226,-7240,-70,100,-48
32767,31864,1622,-92,-139,34,22966,22942,-1074,51,-70,17,9232,9186,-7182,-45,92,-50
32767,31880,1670,-62,-118,37,22770,22974,-956,38,-92,5,9248,9186,-7114,-2,70,-47
32767,32106,1686,-41,-116,27,22766,22924,-812,41,-124,19,9322,9188,-7158,37,60,-36
32767,32280,1794,-54,-117,19,22988,22940,-856,68,-141,42,9298,9168,-7222,58,68,-38
32767,32202,1822,-86,-117,15,23102,23164,-966,104,-148,61,9236,9260,-7226,67,73,-43
32767,31946,1916,-107,-102,10,23204,23298,-1226,112,-134,65,9152,9350,-7224,72,58,-41
32767,31406,1832,-55,-72,13,23236,23356,-1216,82,-122,54,9280,9424,-7208,85,45,-30
32767,31618,1984,0,-37,6,23248,23390,-1432,36,-116,38,9198,9394,-7100,61,60,-25
32767,31750,2328,20,28,1,23222,23222,-1464,-2,-100,25,9124,9362,-7058,32,62,-28
32767,31938,2556,38,59,-5,23184,23022,-1652,-28,-86,17,8928,9374,-7096,15,43,-28
32767,32300,2342,32,76,-5,23120,22956,-1652,-27,-78,13,8944,9378,-6984,24,9,-18
32767,32336,2074,-11,87,-6,23284,22850,-1694,1,-79,6,9176,9474,-7136,30,-19,-8
32767,32320,1828,-59,97,-13,23402,23028,-1636,40,-69,-4,9348,9438,-7250,17,-14,-2
32767,32006,1798,-114,95,-18,23334,23230,-1610,51,-55,-7,9412,9464,-7336,-4,4,-3
32767,31816,1468,-112,80,-14,23132,23310,-1524,46,-46,-5,9330,9432,-7346,-34,11,-9
32767,31614,1350,-107,73,-9,23138,23348,-1368,42,-50,-4,9308,9240,-7396,-76,12,-23
32767,31560,1216,-92,60,-1,23350,23414,-1278,53,-58,-2,9368,9094,-7448,-92,17,-29
32767,31624,1194,-52,39,2,23464,23554,-1244,50,-37,4,9376,9020,-7404,-81,25,-27
32767,31854,1040,-44,15,8,23362,23670,-1166,54,-23,7,9372,8998,-7324,-46,26,-19
32767,31918,982,-49,-6,15,23164,23658,-1198,53,-20,1,9314,9048,-7316,-5,26,-11
32767,31768,1230,-48,-27,10,23158,23530,-1216,29,-32,8,9204,9040,-7386,31,28,-10
32767,31956,1334,-40,-57,3,23196,23476,-1216,39,-51,19,9238,9148,-7282,48,26,-13
32767,32188,1376,-32,-75,-3,23224,23454,-1310,28,-54,22,9194,9306,-7262,58,22,-3
32767,32208,1400,-29,-73,-3,23140,23260,-1298,16,-51,25,9134,9430,-7190,88,12,24
32767,32230,1464,-23,-74,3,23124,23192,-1266,24,-58,13,9290,9594,-7288,97,2,40
32767,32142,1674,-5,-67,2,23184,23110,-1320,29,-45,0,9424,9626,-7414,76,8,45
32767,32280,1774,9,-62,-9,23196,23000,-1432,41,-49,0,9420,9560,-7422,22,29,43
32767,32296,1890,-9,-58,-21,23194,23122,-1384,81,-64,-7,9234,9564,-7350,-31,44,35
32767,32422,1838,-10,-44,-27,23270,23244,-1426,108,-66,-6,9182,9506,-7286,-69,43,36
32767,32370,1834,-47,-9,-28,23326,23376,-1412,110,-50,6,9182,9476,-7276,-95,35,38
32767,31836,1820,-102,-5,-35,23288,23468,-1538,117,-45,7,9236,9306,-7226,-109,30,29
32767,31564,1626,-80,-7,-39,23276,23580,-1590,116,-40,-4,9258,9162,-7190,-103,25,27
32767,31332,1478,-27,-14,-24,23316,23730,-1586,93,-48,-1,9358,8988,-7192,-61,26,26
32767,31338,1556,45,-21,-13,23318,23690,-1548,64,-39,0,9184,8978,-7192,-16,24,23
32767,31660,1496,102,-18,-10,23326,23510,-1678,46,-37,-7,9094,9038,-7184,20,4,19
32767,32164,1498,111,-14,-8,23344,23506,-1686,68,-31,-11,9266,9134,-7258,55,-16,16
32767,32320,1516,75,-20,-6,23334,23732,-1656,67,-25,-12,9410,9192,-7276,79,-16,16
32767,32258,1536,31,-36,-8,23136,23808,-1646,52,-17,-8,9456,9406,-7258,86,-3,15
32767,31972,1454,9,-53,-5,23018,23744,-1392,3,-34,-10,9464,9440,-7328,85,7,12
32767,32058,1488,34,-69,1,23248,23476,-1458,-12,-32,-22,9392,9506,-7318,72,15,5
32767,32078,1522,53,-71,3,23266,23224,-1418,7,-39,-24,9316,9556,-7370,41,35,-1
32767,32216,1468,60,-92,-5,23238,23206,-1314,5,-32,-51,9306,9576,-7306,15,39,-1
32767,32466,1386,51,-114,-18,23140,23578,-1430,74,-25,-25,9312,9518,-7322,-15,40,0
32767,32558,1280,15,-131,-25,22886,23680,-1230,44,-57,10,9344,9380,-7372,-40,43,-4
32767,32234,1530,-25,-122,-36,23246,23704,-1196,31,-71,-29,9278,9170,-7394,-38,55,-10
32767,31968,1792,-24,-112,-41,23396,23776,-1304,25,-63,-36,9180,9242,-7304,-18,58,-18
32767,31608,1954,25,-111,-41,23194,23730,-1290,4,-50,-31,9166,9334,-7206,1,44,-14
32767,31814,1594,72,-144,-150,23024,23710,-1458,12,-51,-39,9080,9266,-7148,3,30,-13
32767,32372,1632,102,-147,14,23114,23662,-1422,-9,-67,-46,9146,9210,-7270,23,11,-17
32767,32420,1918,76,-116,-31,23140,23730,-1414,-12,-69,-29,9262,9226,-7244,46,5,-18
32767,32192,2092,66,-109,-71,23234,23652,-1570,-19,-75,-13,9226,9358,-7278,68,15,-16
32767,31952,1990,91,-94,-41,23382,23650,-1500,-15,-74,-22,9096,9538,-7272,74,18,-10
32767,32346,1806,104,-63,-49,23358,23616,-1468,-21,-67,-34,9060,9638,-7214,58,4,-3
32767,32512,1844,78,-49,-42,23214,23698,-1462,-5,-52,-35,9340,9592,-7288,25,-12,-3
32767,32526,2020,22,-38,-49,23130,23582,-1502,-29,-46,-21,9432,9426,-7388,-17,6,-10
32767,32706,2100,-37,-35,-34,23184,23638,-1304,-20,-72,-21,9358,9340,-7250,-50,29,-21
32767,32454,1990,-60,-14,-40,23224,23696,-1380,-1,-73,-18,9188,9462,-7230,-45,26,-21
32767,32176,1892,-22,-10,-27,23396,23660,-1322,-6,-81,-15,9310,9478,-7306,-32,11,-7
32767,32192,1782,13,0,-43,23298,23700,-1374,-19,-82,-20,9226,9466,-7328,-29,15,2
32767,32408,1646,41,-12,-26,23216,23718,-1448,-29,-80,-11,9172,9392,-7308,-28,14,3
32767,32767,1752,14,-3,-28,23174,23674,-1426,-20,-85,-7,9306,9222,-7280,-17,-6,-2
32767,32767,2040,-49,8,-39,23242,23632,-1404,-27,-88,-10,9392,9150,-7302,6,2,-3
32767,32767,2036,-70,-11,-2,23278,23566,-1490,-36,-82,-8,9304,9192,-7246,28,17,0
32767,32384,1972,-87,16,-6,23394,23462,-1490,-45,-70,-17,9202,9340,-7218,44,11,5
32767,32358,1924,-60,33,-4,23472,23432,-1572,-41,-50,-26,9274,9492,-7244,53,-13,11
32767,32628,1930,-51,45,-11,23324,23436,-1582,-22,-35,-25,9336,9624,-7328,46,-12,13
32767,32542,1912,-87,54,-12,23050,23496,-1756,-11,-35,-23,9238,9630,-7262,9,2,6
32767,32498,1840,-103,50,-13,23038,23532,-1658,33,-48,-15,9296,9624,-7296,-36,11,-3
32767,32502,1748,-110,49,-15,23286,23634,-1630,56,-59,-10,9372,9470,-7284,-67,20,-6
32767,32330,1684,-104,46,-14,23484,23806,-1674,43,-49,-10,9302,9332,-7266,-83,27,-8
32767,32238,1648,-88,47,-12,23300,23836,-1696,15,-41,-12,9236,9290,-7160,-79,25,-6
32767,32296,1472,-71,32,-12,23176,23668,-1694,-37,-50,-25,9284,9246,-7142,-60,12,-1
32767,32150,1324,-80,17,-10,23308,23454,-1558,-43,-49,-30,9362,9110,-7450,-21,11,-2
32767,32150,1338,-63,7,-4,23378,23438,-1488,-35,-40,-27,9316,9070,-7576,2,35,-10
32767,32366,1528,-32,-4,-8,23374,23408,-1312,-32,-20,-26,9314,9122,-7500,15,44,-18
32767,32484,1484,-35,-4,-12,23114,23356,-1372,-29,-18,-25,9310,9262,-7416,21,37,-19
32767,32470,1402,-33,-12,-12,23068,23424,-1202,-15,-27,-27,9386,9280,-7476,21,37,-11
32767,32420,1476,-22,-25,-13,23204,23488,-1178,-3,-33,-24,9406,9298,-7344,24,51,-5
32767,32306,1524,-27,-25,-22,23246,23538,-1246,15,-32,-22,9338,9330,-7290,20,65,-10
32767,32238,1524,-36,-30,-23,23214,23690,-1260,22,-32,-5,9172,9358,-7218,3,61,-21
32767,32130,1462,-16,-36,-27,23232,23724,-1322,26,-37,6,9174,9364,-7212,-5,44,-25
32767,32316,1508,13,-50,-24,23126,23894,-1474,25,-43,15,9370,9324,-7222,-16,43,-17
32767,32474,1674,-9,-64,-25,23080,23962,-1534,8,-55,26,9200,9312,-7192,-31,53,-19
32767,32458,1792,-63,-70,-4,23306,23800,-1506,4,-72,23,9056,9254,-7162,-34,53,-23
32767,32202,1772,-76,-66,-17,23586,23616,-1546,1,-73,13,9056,9274,-7142,-16,34,-17
32767,31962,1744,-45,-52,-11,23648,23514,-1542,-4,-52,2,9208,9292,-7234,3,15,-9
32767,32208,1900,24,-43,-5,23400,23338,-1522,17,-32,6,9268,9200,-7250,16,18,-9
32767,32767,1964,34,-39,-1,23268,23466,-1526,50,-26,16,9214,9222,-7296,26,29,-13
32767,32767,1956,-35,-25,1,23138,23772,-1544,71,-36,29,9168,9246,-7450,30,27,-13
32767,32600,1902,-83,-10,2,23154,23928,-1332,72,-46,36,9318,9216,-7546,40,27,-4
32767,32366,1796,-79,4,-1,23310,24032,-1296,49,-53,42,9438,9418,-7420,36,32,5
32767,32094,1682,-24,21,-3,23306,24078,-1366,-1,-43,37,9446,9578,-7328,26,36,22
32767,32162,1474,45,14,-9,23322,23966,-1276,-52,-35,35,9318,9540,-7150,17,35,35
32767,32284,1406,81,4,-9,23456,23916,-1416,-81,-25,32,9222,9370,-7184,13,19,23
32767,32767,1494,65,-27,-11,23196,23614,-1270,-102,-23,29,9246,9144,-7212,26,7,13
32767,32767,1660,-27,-46,-9,23222,23424,-1260,-76,-41,28,9254,9022,-7360,50,12,11
32767,32604,1742,-89,-42,-2,23264,23456,-1320,-27,-47,30,9284,9116,-7404,79,25,11
32767,32314,1852,-40,-27,7,23236,23572,-1444,8,-51,35,9092,9420,-7214,93,31,16
32767,32450,1882,17,-18,21,23224,23734,-1518,7,-58,42,9146,9626,-7170,71,12,15
32767,32767,1788,33,-9,26,23318,23958,-1598,-34,-63,43,9174,9666,-7066,45,-13,19
32767,32767,1744,-49,-12,41,23448,24046,-1490,-78,-54,37,9404,9600,-7318,17,-19,24
32767,32746,1804,-136,-25,22,23186,24052,-1454,-152,-37,14,9436,9468,-7456,-20,1,19
32767,32068,1778,-170,-19,23,23248,23924,-1726,-201,-31,29,9214,9416,-7450,-42,27,11
32767,32134,1830,-74,-17,18,23236,23612,-1442,-232,-21,16,9140,9414,-7366,-59,19,3
32767,32568,1782,-9,2,40,23316,23630,-1598,-177,-27,15,9286,9184,-7238,-60,3,-1
32767,32188,1846,-3,21,38,23286,23560,-1462,-170,-26,31,9404,9026,-7294,-55,7,-17
32767,32767,1826,26,9,61,23482,23736,-1466,-112,-29,39,9250,9164,-7252,-32,30,-22
32767,32767,1740,-77,6,39,23510,23972,-1554,-89,-31,34,9012,9400,-7208,-26,36,-18
32767,32767,1558,-200,0,42,23410,24020,-1408,-119,-20,15,9102,9464,-7264,-51,13,-16
32767,32484,1460,-229,8,93,23276,23820,-1560,-130,-23,4,9262,9492,-7466,-68,8,-21
32767,32252,1476,-181,-11,41,23040,23318,-1294,-168,-26,2,9424,9522,-7538,-91,22,-28
32767,32356,1462,-182,-4,133,23414,23232,-1454,-80,-41,30,9366,9534,-7374,-108,43,-24
32767,32732,1572,-168,-10,99,23384,23334,-1364,-29,-48,44,9336,9470,-7380,-130,50,-22
32767,32658,1456,-206,-2,108,23192,23528,-1472,-10,-50,27,9268,9430,-7434,-122,59,-10
32767,32382,1538,-197,-12,84,23142,23738,-1494,-43,-59,12,9128,9412,-7362,-103,54,1
32767,32698,1562,-196,-14,63,23208,23754,-1388,-83,-54,6,9262,9328,-7350,-87,43,12
32767,32070,1578,-201,-32,14,23260,23690,-1430,-104,-48,-6,9188,9072,-7334,-89,45,8
32767,31888,1560,-130,-30,27,23140,23702,-1538,-146,-26,-18,9292,8760,-7290,-80,32,-11
32767,32334,1590,-77,-21,71,23308,23732,-1504,-132,-35,3,9276,8824,-7420,-35,29,-11
32767,32390,1686,-28,-18,78,23266,23650,-1384,-164,-35,-3,9220,9114,-7394,19,31,10
32767,32596,1698,-86,-7,55,23482,23534,-1566,-177,-32,-7,9138,9318,-7336,31,29,11
32767,32346,1662,-168,-14,46,23350,23342,-1288,-180,-24,-21,9026,9358,-7248,-18,32,-13
32767,31946,1560,-172,-21,43,23228,23000,-1530,-147,-15,-30,9002,9344,-7318,-45,30,-22
32767,31890,1418,-128,-14,71,23110,23082,-1420,-107,-34,-27,9118,9296,-7304,-52,22,-24
32767,32692,1336,-106,-16,62,23116,23330,-1310,-82,-38,-23,9302,9160,-7464,-72,24,-35
32767,32748,1454,-157,7,90,23262,23620,-1236,-74,-39,-12,9322,9218,-7492,-90,49,-37
32767,32596,1564,-182,-19,75,23336,23734,-1238,-102,-29,-13,9238,9280,-7394,-108,60,-38
32767,32767,1576,-233,-19,63,23294,23546,-1280,-130,-26,-22,9270,9290,-7396,-115,51,-38
32767,32390,1488,-266,-17,77,23306,23364,-1122,-160,-30,-38,9308,9322,-7450,-116,54,-26
32767,31870,1398,-270,-39,43,23130,23228,-1296,-174,-25,-33,9248,9088,-7334,-134,65,-28
32767,31544,1362,-225,-42,39,23030,23062,-1300,-148,-40,-24,9172,8752,-7318,-135,71,-45
32767,31922,1380,-102,-49,44,23206,23164,-1196,-106,-54,-32,8994,8624,-7426,-98,67,-54
32767,32656,1614,-106,-38,51,23374,23296,-1368,-92,-44,-29,8982,8722,-7380,-52,54,-54
32767,32746,1614,-197,-37,51,23360,23382,-1406,-87,-40,-20,9044,8894,-7332,-26,31,-44
32767,32254,1658,-246,-49,55,23308,23338,-1304,-96,-48,-31,9206,9112,-7310,-3,25,-29
32767,32028,1662,-241,-53,55,23388,23260,-1366,-107,-46,-46,9214,9254,-7304,-1,29,-23
32767,31952,1686,-220,-45,51,23428,23124,-1268,-85,-43,-47,9152,9314,-7386,-28,34,-34
32767,31934,1638,-170,-40,48,23212,23244,-1214,-71,-33,-39,9078,9226,-7486,-76,40,-48
32767,32258,1670,-157,-32,61,23148,23306,-1328,-66,-36,-29,9156,8994,-7498,-119,45,-55
32767,32126,1634,-186,-22,67,23184,23368,-1326,-65,-47,-29,9182,8908,-7422,-124,44,-48
32767,32326,1634,-192,-22,72,23320,23226,-1354,-84,-53,-38,9242,8778,-7440,-117,39,-45
32767,32102,1592,-215,-18,70,23360,23094,-1388,-101,-53,-48,9306,8798,-7376,-78,40,-40
32767,31952,1434,-204,-29,52,23138,22904,-1362,-112,-43,-46,9184,8860,-7422,-41,44,-29
32767,31812,1476,-187,-26,45,23022,22780,-1326,-104,-42,-38,9156,8904,-7410,-40,39,-25
32767,31752,1516,-144,-32,38,23222,22758,-1248,-73,-47,-42,9156,8992,-7444,-32,29,-35
32767,32472,1594,-119,-59,27,23238,22916,-1256,-34,-39,-52,9188,9014,-7364,-24,34,-44
32767,32558,1668,-167,-61,21,23162,23042,-1236,-24,-48,-62,9180,8964,-7442,-52,46,-37
32767,32448,1606,-214,-64,23,23182,23116,-1038,-25,-56,-66,9126,8830,-7446,-70,55,-28
32767,32008,1616,-247,-61,8,23334,23162,-1044,-13,-65,-61,9092,8814,-7378,-69,50,-41
32767,31470,1530,-221,-59,9,23352,23146,-1092,20,-65,-58,9110,8822,-7362,-72,40,-65
32767,31556,1536,-135,-69,5,23204,23178,-1116,33,-65,-52,9062,8780,-7278,-77,46,-82
32767,31904,1526,-120,-71,9,23152,23300,-1162,28,-72,-36,9092,8808,-7396,-88,52,-73
32767,31792,1478,-139,-74,11,23284,23418,-1246,22,-79,-30,9106,8770,-7412,-102,49,-55
32767,31558,1442,-140,-77,9,23420,23310,-1192,-5,-72,-37,9184,8700,-7420,-90,44,-45
32767,31530,1618,-121,-79,4,23390,23264,-1222,-6,-74,-44,9156,8700,-7446,-59,52,-48
32767,31756,1722,-107,-81,-1,23220,23112,-1158,-24,-62,-42,9028,8722,-7398,-30,51,-40
32767,31640,1794,-78,-72,2,23198,22994,-1222,-12,-67,-35,8936,8786,-7372,-4,33,-19
32767,31662,1730,-16,-62,-3,23194,23016,-1258,3,-70,-40,9012,8724,-7348,12,18,-4
32767,32126,1858,20,-53,-9,23220,23054,-1226,7,-66,-31,9192,8668,-7452,27,7,-7
32767,32472,1942,18,-45,-21,23158,23058,-1238,34,-72,-12,9096,8782,-7488,39,14,-13
32767,32616,1914,-29,-53,-9,23278,23074,-1072,37,-81,-13,9126,8836,-7442,54,15,-4
32767,32174,1784,-117,-45,-11,23350,23090,-1230,26,-58,-21,9200,9086,-7486,42,21,9
32767,31682,1656,-77,-61,-9,23072,23062,-1110,3,-61,-21,9128,9080,-7480,-21,41,6
32767,31966,1600,-23,-54,-21,23028,23018,-1002,-8,-64,-28,9046,8922,-7394,-51,43,-2
32767,31978,1598,-10,-45,-20,23236,22946,-1102,-2,-64,-24,9116,8774,-7394,-67,42,-2
32767,32096,1592,-27,-54,-27,23226,22880,-1208,17,-57,-17,9110,8606,-7460,-73,48,-2
32767,32188,1750,-41,-57,-19,23176,22908,-1076,49,-61,-17,9112,8540,-7442,-56,54,-8
32767,32010,1874,-48,-50,-22,23204,22922,-1224,57,-65,-30,9068,8590,-7438,-26,55,-13
32767,31984,1732,-36,-52,-34,23246,23102,-1236,60,-62,-28,8958,8754,-7386,-15,51,-3
32767,31918,1734,-24,-48,-35,23270,23000,-1184,51,-65,-36,8900,8672,-7406,-9,35,7
32767,31910,1666,1,-47,-42,23358,23106,-1122,48,-66,-49,9030,8556,-7468,5,18,1
32767,32018,1724,-23,-49,-27,23242,23076,-1292,50,-50,-34,9088,8572,-7452,27,20,-4
32767,31932,1810,-47,-38,-13,23144,23044,-1060,53,-57,-25,9058,8646,-7442,50,29,-8
32767,31732,1818,-21,-33,-10,23316,23228,-1172,44,-65,-52,9046,8770,-7540,56,29,-9
32767,31680,1816,-8,-27,-28,23234,23272,-1152,30,-52,-48,9052,8794,-7544,40,22,-6
32767,31830,1738,-6,-37,-41,23040,23094,-1124,19,-58,-31,9036,8722,-7482,22,26,-6
32767,31916,1730,-11,-38,-42,23412,23158,-1010,27,-73,-53,9102,8674,-7460,20,18,-12
32767,31836,1708,-38,-34,-62,23324,23288,-1250,44,-58,-26,9126,8668,-7412,25,21,-11
32767,31682,1792,-19,-33,-54,23170,23208,-1210,50,-67,-10,9032,8774,-7532,8,38,-19
32767,32088,1760,54,-39,-31,23252,23282,-1300,59,-73,-26,8928,8750,-7484,19,25,-24
32767,32106,1794,17,-29,-57,23308,23280,-1292,48,-75,-22,9038,8738,-7458,28,7,-20
32767,31884,1810,-10,-58,-25,23292,23300,-1184,15,-77,-21,9050,8702,-7458,18,14,-13
32767,31790,1800,-32,-44,-42,23510,23298,-1132,-3,-63,-37,8998,8670,-7406,19,23,-9
32767,31330,1440,-5,-39,-56,22962,22786,-1292,26,-27,34,8894,8634,-7432,26,3,-15
32767,31722,1844,30,-48,22,23344,22900,-1240,125,-74,8,9014,8672,-7526,39,-7,-10
32767,32322,1836,23,-18,0,23624,23424,-1242,165,-58,-14,9100,8726,-7598,60,-9,-10
32767,32262,1954,-9,-8,-15,23258,23712,-1266,132,-44,10,9194,8778,-7692,65,-2,-8
32767,32286,1726,-23,-17,-26,23008,23746,-1304,109,-56,17,9134,8812,-7630,45,20,-4
32767,31836,1756,-14,-8,-32,23234,23690,-1086,46,-77,0,8996,8862,-7416,19,25,-2
32767,32048,1798,0,-17,-31,23564,23518,-1244,-32,-55,-11,8944,8852,-7390,9,2,-3
32767,32544,1788,-10,-8,-56,23198,23230,-1294,-42,-44,-5,9058,8754,-7574,31,-8,4
32767,32474,1736,31,-22,-18,23118,23110,-1240,-36,-55,-13,9164,8494,-7522,62,-9,5
32767,32082,1786,-6,-12,0,23280,23078,-1336,1,-63,-15,9198,8608,-7588,81,11,-5
32767,31962,1584,19,-28,-1,23390,23114,-1470,40,-58,2,9066,8812,-7602,95,26,5
32767,32318,1638,40,-22,-6,23172,23134,-1464,73,-57,6,9026,8872,-7522,99,25,15
32767,32224,1782,44,-22,0,23098,23230,-1498,90,-70,-2,9056,8834,-7448,84,20,12
32767,32178,1992,64,-18,2,23446,23444,-1400,60,-63,-11,9090,8960,-7510,56,32,11
32767,32242,1782,90,-9,-10,23492,23578,-1346,15,-40,-15,9002,8948,-7536,29,32,12
32767,32530,1802,85,-11,-4,23214,23520,-1230,-35,-27,-15,9008,8936,-7484,6,27,11
32767,32767,1762,-3,-18,-6,23134,23308,-1186,-40,-41,-13,9180,8840,-7648,-7,24,7
32767,32252,1780,-95,-20,-8,23198,23214,-1166,-17,-55,2,9250,8794,-7638,-28,48,-7
32767,31980,1620,-84,-21,-11,23292,23164,-1078,25,-57,7,9154,8798,-7634,-57,64,-15
32767,31922,1548,24,-22,-10,23264,23432,-954,41,-57,5,9030,8646,-7796,-58,64,-11
32767,32140,1604,53,-27,-10,23404,23694,-1124,55,-43,17,9036,8522,-7678,-32,69,-22
32767,32398,1582,32,-25,-17,23286,23540,-1088,36,-28,28,9024,8560,-7560,-29,72,-34
32767,32346,1498,-12,-34,-17,23446,23442,-1000,50,-45,32,8946,8512,-7402,-15,58,-34
32767,32420,1392,-33,-48,-16,23686,23480,-998,62,-47,26,8962,8520,-7480,21,31,-26
32767,32218,1638,-48,-55,-7,23574,23676,-1084,67,-33,28,9158,8558,-7572,60,29,-18
32767,32244,1906,-22,-64,6,23206,23896,-1120,77,-28,47,9016,8730,-7682,79,50,-17
32767,32252,1908,1,-54,7,23158,24030,-1106,52,-46,60,8768,8880,-7636,80,54,-19
32767,32372,1922,22,-41,-2,23464,24078,-1282,24,-58,57,8692,8956,-7446,75,32,-12
32767,32767,1874,-10,-31,0,23522,23794,-1380,-4,-52,50,8976,8950,-7418,56,-7,0
32767,32558,1940,-71,-24,6,23502,23524,-1470,-29,-49,28,9152,8766,-7552,64,-7,7
32767,32212,1918,-75,-18,9,23310,23426,-1534,-17,-38,18,9242,8786,-7608,81,14,18
32767,32062,1932,0,-7,8,23192,23370,-1564,4,-39,27,9064,9002,-7630,77,31,36
32767,32314,1960,74,7,13,23096,23380,-1596,52,-43,45,8808,9092,-7560,63,23,57
32767,32767,1968,103,6,16,23144,23530,-1516,105,-61,53,8948,9030,-7634,44,-7,63
32767,32767,2102,26,-4,2,23378,23718,-1548,124,-64,46,9112,8926,-7682,27,-11,56
32767,32767,2128,-86,1,6,23656,23912,-1560,97,-38,48,9196,8898,-7702,16,8,55
32767,32510,1974,-93,21,10,23652,24048,-1484,50,-12,57,9230,9036,-7778,28,29,60
32767,32130,1854,-61,31,4,23356,23974,-1376,-44,4,59,9178,9166,-7710,18,42,62
32767,32246,1666,-26,17,-5,23242,23768,-1230,-84,-5,47,9076,9160,-7736,-22,48,60
32767,32606,1366,-33,8,-22,23332,23440,-1178,-69,-22,32,9118,8864,-7662,-44,50,52
32767,32348,1436,-66,7,-19,23312,23288,-1058,-51,-24,28,9130,8616,-7796,-38,61,32
32767,32162,1524,-21,-7,-15,23272,23286,-1182,3,-33,41,9000,8582,-7916,-21,84,29
32767,32332,1574,30,5,-22,23286,23348,-1164,46,-41,43,8930,8616,-7744,2,89,38
32767,32518,1434,56,15,-21,23542,23574,-1090,77,-54,28,8976,8682,-7574,23,63,41
32767,32767,1312,58,0,-1,23304,23906,-1234,41,-32,9,9212,8750,-7492,56,24,38
32767,32767,1464,-15,-18,9,23068,23922,-1320,-7,-29,8,9150,8922,-7690,79,29,40
32767,32634,1664,-129,-38,16,23068,23760,-1142,-25,-50,9,9064,9116,-7818,74,42,39
32767,32100,1754,-132,-43,21,23276,23688,-1138,-39,-60,4,9010,9280,-7742,37,50,42
32767,31868,1804,-82,-51,1,23354,23532,-1282,-36,-50,15,9024,9332,-7664,-18,47,38
32767,32144,1858,-14,-30,9,23306,23546,-1418,2,-56,22,9080,9136,-7698,-44,43,29
32767,32548,2040,15,-26,16,23420,23750,-1456,18,-53,19,9004,8966,-7568,-46,38,20
32767,32576,2044,-31,-11,24,23478,24066,-1488,-2,-46,27,9040,8984,-7490,-39,25,24
32767,31978,1862,-82,-20,19,23344,24150,-1518,-37,-44,32,8940,9050,-7594,-42,17,39
32767,31974,1692,-61,-21,10,23266,24094,-1468,-83,-52,16,8946,8894,-7606,-52,5,33
32767,32246,1804,-36,-13,8,23590,24058,-1650,-101,-49,4,9054,8752,-7718,-58,-6,12
32767,32374,1988,-50,-11,10,23538,23920,-1594,-104,-28,16,9012,8738,-7758,-44,-4,1
32767,32490,1974,-57,-1,20,23292,23856,-1538,-100,-29,17,8978,8814,-7668,-18,-6,4
32767,32490,1866,-45,8,28,23302,24004,-1440,-104,-31,14,9028,8926,-7568,-5,-19,9
32767,32620,1738,-46,20,37,23630,24138,-1562,-88,-30,56,9118,8962,-7602,-1,-27,9
32767,32767,1566,-63,21,37,23084,23736,-1408,-129,-31,51,9222,8948,-7724,-4,-26,0
32767,32767,1530,-118,15,64,23410,23772,-1508,-104,-55,19,9210,9146,-7898,4,-11,-3
32767,32548,1662,-134,7,61,23892,23770,-1382,-90,-45,41,9114,9248,-7812,-20,21,-4
32767,32378,1582,-137,15,74,23420,23632,-1418,-110,-11,21,9038,9296,-7680,-58,24,-7
32767,32618,1506,-93,12,88,23444,23692,-1394,-73,-43,2,9028,9098,-7650,-80,14,-5
32767,32767,1400,-96,-3,68,23392,23824,-1338,-69,-43,1,9174,8872,-7640,-77,18,-4
32767,32632,1480,-126,-10,70,23236,23794,-1294,-88,-32,0,9204,8806,-7606,-79,30,-16
32767,32767,1508,-121,-6,124,23484,23820,-1364,-82,-33,0,9080,8860,-7778,-71,29,-22
32767,32586,1864,-145,2,115,23464,23736,-1262,-103,-13,7,9122,8898,-7784,-58,42,-13
32767,32662,1592,-172,-23,93,23272,23640,-1272,-101,-28,13,9118,8916,-7734,-60,43,-14
32767,32150,1578,-163,14,106,23310,23580,-1244,-102,-43,-5,8988,9038,-7594,-59,33,-8
32767,32767,1560,-102,-10,80,23452,23770,-1128,-80,-43,-17,9042,8926,-7638,-38,20,2
32767,32708,1514,-131,-25,27,23488,23770,-1158,-84,-30,-12,9102,8766,-7772,-28,19,-9
32767,31900,1462,-153,-24,69,23326,23814,-1132,-81,-26,-10,9068,8772,-7702,-29,29,-23
32767,32326,1412,-83,-38,109,23510,23810,-1288,-93,-26,-13,9014,8854,-7702,-16,32,-20
32767,32304,1638,-102,-23,87,23400,23696,-1356,-118,-18,-13,8920,8952,-7532,0,31,-11
32767,32574,1674,-123,-28,51,23328,23658,-1190,-142,-16,-18,8934,8974,-7458,-6,24,-16
32767,32500,1600,-128,-22,53,23218,23674,-1296,-163,-17,-26,9042,9016,-7508,-15,15,-20
32767,32767,1420,-128,-25,57,23200,23662,-1308,-176,-18,-23,9264,8898,-7612,-20,6,-28
32767,32550,1626,-176,-16,75,23278,23648,-1292,-178,-21,-17,9188,8934,-7810,-21,29,-35
32767,32156,1634,-150,-13,80,23582,23688,-1334,-166,-18,-15,8924,9166,-7682,-34,49,-34
32767,32252,1658,-107,-17,63,23302,23770,-1400,-182,1,-22,8850,9198,-7544,-56,34,-25
32767,32552,1732,-123,-25,62,23062,23644,-1458,-167,-19,-18,8972,9096,-7488,-77,9,-19
32767,32592,1814,-152,-23,57,23306,23526,-1404,-153,-44,-19,9136,8872,-7576,-86,5,-18
32767,32632,1684,-164,-25,55,23378,23526,-1370,-127,-43,-15,9194,8740,-7594,-88,14,-22
32767,32618,1644,-166,-20,60,23370,23424,-1468,-115,-36,-6,9034,8700,-7636,-89,23,-28
32767,32502,1682,-177,-16,70,23498,23478,-1452,-99,-33,-14,8940,8768,-7642,-93,21,-36
32767,32440,1580,-181,-19,76,23540,23488,-1424,-112,-19,-30,8950,8814,-7656,-91,11,-42
32767,32767,1650,-204,-24,75,23372,23352,-1438,-116,-14,-29,9010,8842,-7688,-102,14,-49
32767,32767,1656,-269,-28,78,23234,23236,-1290,-99,-31,-29,9080,8822,-7536,-109,18,-50
32767,32564,1596,-312,-21,88,23260,23216,-1256,-95,-34,-32,9140,8794,-7560,-115,23,-42
32767,32218,1490,-285,-24,79,23098,23222,-1246,-85,-36,-13,9076,8792,-7786,-112,28,-39
32767,32520,1274,-257,-31,64,23168,23268,-1220,-95,-45,-10,9154,8732,-7840,-109,32,-48
32767,32386,1468,-278,-19,65,23194,23212,-1322,-88,-45,-23,9244,8680,-7868,-106,45,-53
32767,32040,1666,-218,-24,60,23254,23200,-1222,-73,-52,-30,9050,8662,-7720,-99,79,-41
32767,32198,1694,-170,-20,51,23320,23188,-1224,-70,-49,-32,8862,8550,-7572,-87,71,-39
32767,32478,1418,-136,-22,53,23318,23268,-1154,-63,-51,-29,9014,8516,-7616,-70,41,-42
32767,32540,1258,-155,-19,43,23366,23296,-1196,-63,-48,-33,9254,8544,-7650,-40,33,-34
32767,32214,1292,-195,-30,37,23388,23300,-1246,-54,-50,-36,9246,8606,-7790,-23,55,-21
32767,31938,1422,-172,-45,27,23330,23318,-1180,-58,-48,-45,9064,8596,-7726,-25,73,-20
32767,32096,1614,-144,-56,23,23142,23312,-1236,-55,-48,-44,8982,8522,-7568,-46,67,-36
32767,32246,1608,-142,-61,17,23078,23222,-1260,-49,-61,-34,8882,8496,-7534,-49,55,-62
32767,32114,1702,-143,-56,27,23184,23106,-1208,-28,-80,-33,8940,8616,-7580,-47,52,-72
32767,32042,1602,-122,-54,36,23478,23208,-1148,-2,-75,-35,8936,8558,-7674,-62,57,-56
32767,32304,1614,-136,-53,40,23588,23352,-1212,-1,-63,-36,9032,8520,-7776,-66,58,-45
32767,31974,1596,-186,-42,41,23298,23494,-1224,-27,-45,-41,8978,8434,-7710,-56,56,-43
32767,31624,1568,-161,-39,38,23076,23462,-1196,-58,-52,-45,8996,8414,-7662,-47,54,-55
32767,31826,1550,-90,-46,35,23220,23282,-1154,-69,-69,-45,8998,8480,-7660,-47,51,-62
32767,32094,1566,-55,-40,37,23450,23166,-994,-59,-69,-43,8966,8512,-7748,-46,47,-53
32767,32072,1586,-61,-38,39,23496,23144,-1176,-41,-53,-45,8942,8496,-7784,-36,47,-41
32767,32274,1694,-113,-48,22,23158,23230,-1282,-19,-42,-43,8972,8462,-7748,-25,43,-40
32767,32176,1762,-138,-61,14,23052,23128,-1362,-7,-59,-35,8976,8318,-7790,-14,41,-55
32767,31850,1774,-116,-53,16,23234,23094,-1190,9,-84,-42,8974,8298,-7826,-8,52,-65
32767,31866,1658,-49,-42,16,23356,23016,-1230,38,-90,-46,8906,8438,-7658,-6,52,-62
32767,32144,1586,-7,-35,10,23400,22944,-1128,78,-99,-34,8826,8504,-7762,-13,41,-42
32767,32432,1538,-31,-43,13,23528,23122,-1120,121,-88,-38,8904,8492,-7706,-14,26,-28
32767,32578,1538,-85,-57,10,23484,23292,-1174,129,-65,-38,9110,8350,-7790,-1,14,-37
32767,32250,1638,-131,-59,11,23166,23482,-1202,117,-56,-25,9180,8360,-7828,12,31,-54
32767,32084,1714,-120,-59,9,22992,23432,-1158,105,-74,-16,8938,8470,-7836,-6,65,-63
32767,31952,1726,-76,-49,-2,23234,23410,-1284,110,-98,-20,8680,8484,-7722,-38,59,-50
32767,32100,1542,-50,-54,-5,23496,23402,-1258,87,-86,-21,8848,8356,-7836,-52,35,-31
32767,32226,1582,-55,-52,-4,23580,23432,-1432,77,-61,-16,9020,8206,-7898,-40,32,-28
32767,32258,1642,-79,-54,-16,23336,23474,-1454,44,-46,-10,9110,8084,-7994,-20,49,-36
32767,31906,1734,-97,-55,-23,23316,23560,-1326,-7,-52,-21,9024,8160,-7958,0,63,-38
32767,31508,1660,-30,-50,-10,23306,23554,-1208,-33,-50,-30,8848,8188,-7884,21,67,-34
32767,31592,1696,71,-35,-13,23192,23296,-1218,-35,-59,-40,8718,8242,-7728,39,55,-23
32767,31876,1558,154,-29,-25,23410,23062,-1120,50,-79,-50,8796,8252,-7694,53,26,-4
32767,32674,1520,155,-43,-33,23382,23230,-1132,85,-63,-29,8890,8106,-7912,89,7,2
32767,32767,1628,93,-54,-24,23168,23440,-1148,71,-59,-5,8970,8134,-8070,120,14,-11
32767,32390,1788,42,-45,-22,23210,23602,-1084,44,-70,-8,8908,8324,-7964,124,39,-26
32767,32114,1798,65,-42,-29,23354,23502,-1044,22,-74,-27,8872,8506,-7930,91,49,-34
32767,31942,1698,132,-17,-55,23270,23276,-1124,0,-69,-38,8910,8630,-7770,49,44,-41
32767,32446,1686,207,-28,-58,23216,23008,-1070,28,-77,-40,9044,8492,-7740,11,38,-38
32767,32767,1630,144,-40,-75,23370,22976,-1086,56,-86,-42,8984,8358,-7814,-11,41,-32
32767,32767,1642,-24,-63,-81,23440,23158,-1098,77,-75,-41,8898,8278,-8000,-21,57,-27
32767,32260,1636,-141,-84,-52,23320,23410,-1190,105,-70,-20,8758,8198,-8096,-9,64,-23
32767,31718,1730,-78,-85,-34,23236,23540,-1188,84,-67,-8,8806,8226,-8066,4,62,-16
32767,31682,1720,-3,-57,-49,23410,23520,-1184,52,-68,-31,8884,8136,-7754,9,60,-12
32767,31930,1710,102,-56,-33,23470,23584,-1272,18,-65,-61,8782,8050,-7760,17,60,-14
32767,32767,1796,126,-49,-31,23316,23580,-1178,-21,-51,-50,8746,7910,-7714,48,36,-24
32767,32767,1860,41,-49,-42,23308,23356,-1202,-13,-63,-37,8712,7988,-7902,86,9,-24
32767,32767,1936,-74,-57,-46,23358,23398,-1148,11,-71,-29,8852,8202,-8128,115,8,-11
32767,32092,1820,-99,-62,-37,23432,23454,-1260,45,-64,-1,8844,8412,-8138,121,22,1
32767,31596,1828,4,-28,-38,23416,23566,-1224,53,-67,6,8894,8444,-7966,83,21,-8
32767,32058,1870,80,-21,-41,23440,23638,-1130,41,-67,-13,8952,8344,-7786,45,24,-25
32767,32756,1834,84,-25,-52,23562,23626,-1246,41,-61,-24,8890,8236,-7750,22,26,-37
32767,32767,1858,1,-24,-39,23444,23580,-1114,24,-56,-22,8772,8166,-7812,18,28,-36
32767,32552,1822,-29,-27,-34,23364,23596,-1078,-3,-51,-10,8792,8160,-7992,26,20,-31
32767,32496,1840,-9,-29,-36,23344,23470,-1208,-5,-49,6,8858,8208,-7950,37,8,-27
32767,32306,1666,-25,-31,-51,23304,23446,-1040,10,-56,0,8934,8300,-7978,38,21,-29
32767,32410,1686,-35,-40,-26,23438,23476,-1086,34,-64,-5,8948,8320,-7954,27,25,-35
32767,32312,1784,-31,-42,-33,23358,23482,-1198,62,-50,-2,8888,8220,-7994,9,34,-46
32767,32472,1732,-18,-35,-36,23314,23356,-1220,71,-48,9,8826,8182,-7976,-1,38,-46
32767,32767,1828,3,-33,-27,23362,23448,-1292,98,-58,16,8776,8166,-7966,-1,36,-36
32767,32767,1766,-3,-32,-18,23452,23686,-1184,98,-61,15,8756,8196,-8038,24,26,-26
32767,32706,1786,-32,-36,-18,23370,23790,-1284,78,-58,16,8922,8216,-8038,45,19,-17
32767,32370,1680,-24,-29,-16,23362,23738,-1402,38,-60,13,8962,8248,-8110,60,29,-11
32767,32424,1672,18,-30,-16,23546,23606,-1348,7,-56,9,8856,8292,-7960,54,47,-5
32767,32676,1768,7,-30,-23,23588,23504,-1408,4,-45,-1,8716,8266,-7884,33,47,-8
32767,32767,1784,-1,-40,-28,23412,23546,-1290,4,-36,-3,8782,8152,-7922,17,29,-11
32767,32767,1846,-32,-48,-15,23356,23480,-1230,2,-32,16,8868,8186,-8070,31,22,-1
32767,32572,1898,-48,-31,-12,23264,23552,-1280,42,-39,30,8850,8326,-8048,39,32,14
32767,32114,1862,-13,-28,-3,23342,23610,-1098,74,-49,33,8806,8328,-8056,29,44,19
32767,32304,1780,41,-21,-14,23572,23800,-1192,93,-47,33,8814,8270,-8056,26,38,11
32767,32584,1786,66,-15,-11,23606,24092,-1208,97,-24,36,8816,8146,-8042,24,36,7
32767,32767,1870,64,-14,-14,23376,24148,-1134,49,-28,39,8846,8126,-8034,23,38,8
32767,32767,1928,20,-17,-9,23484,24020,-1088,3,-46,32,8942,8140,-8100,34,43,6
32767,32748,1834,-2,-17,-13,23556,23780,-1068,-4,-49,35,8858,8218,-8104,40,45,-4
32767,32676,1778,-3,-12,-14,23366,23468,-1080,-13,-50,39,8814,8304,-8108,10,47,-6
32767,32690,1730,6,-14,-9,23414,23446,-1108,19,-58,42,8900,8260,-7992,-8,46,5
32767,32688,1590,-4,-30,-3,23374,23574,-1296,48,-54,45,8938,8182,-7948,-6,47,15
32767,32767,1554,-30,-42,-9,23240,23730,-1304,56,-48,52,8822,8076,-8026,7,59,7
32767,32767,1632,-47,-47,-2,23226,23804,-1442,46,-64,52,8702,8060,-8082,26,59,-2
32767,32648,1734,-31,-47,7,23382,23798,-1494,44,-68,46,8660,8114,-8118,57,57,7
32767,32582,1846,2,-39,6,23638,23858,-1474,38,-59,42,8746,8240,-8178,71,59,27
32767,32742,1730,44,-30,5,23714,23824,-1490,37,-25,36,8774,8310,-8134,66,51,39
32767,32767,1820,30,-43,-1,23544,23932,-1398,33,-12,33,8976,8320,-8130,62,38,49
32767,32767,1982,-74,-37,-10,23430,23908,-1278,25,-20,27,8970,8420,-8110,59,37,45
32767,32698,2080,-98,-34,-9,23438,23940,-1178,31,-32,31,8894,8468,-8104,45,48,42
32767,32406,2160,-27,-28,-19,23388,23986,-1084,34,-43,34,8722,8536,-8090,12,53,41
32767,32542,2078,30,-12,-20,23380,24002,-1162,32,-50,40,8740,8474,-8128,-26,45,35
32767,32767,1940,40,-14,-9,23360,24028,-1290,26,-52,47,8710,8342,-8034,-53,39,28
32767,32767,1792,-18,-14,1,23502,23974,-1266,17,-54,49,8788,8114,-8100,-60,40,22
32767,32706,1798,-101,-6,-1,23604,24052,-1294,17,-45,42,8812,7992,-8294,-48,49,9
32767,32158,1716,-52,8,10,23360,23966,-1378,8,-39,32,8716,8050,-8280,-27,59,9
32767,32392,1692,32,19,10,23320,24080,-1350,-9,-42,27,8686,8228,-8204,-15,56,15
32767,32767,1546,56,15,8,23466,24120,-1320,-30,-55,35,8720,8312,-8198,10,33,26
32767,32767,1406,18,-1,14,23506,24154,-1404,-48,-46,48,8914,8282,-8122,39,15,40
32767,32767,1480,-63,-22,18,23752,24250,-1390,-39,-47,66,9018,8296,-8312,56,15,50
32767,32524,1614,-78,-36,25,23782,24234,-1360,-70,-31,48,8952,8256,-8404,56,38,43
32767,32640,1764,-13,-39,17,23440,24014,-1514,-75,-21,27,8718,8340,-8296,39,51,34
32767,32767,2090,-5,-26,12,23690,23998,-1356,-62,-26,17,8662,8418,-8124,15,44,33
32767,32767,1996,-31,-16,13,23422,23954,-1418,-46,-24,19,8700,8426,-8106,-1,17,33
32767,32767,1924,-53,-3,20,23282,23990,-1180,-62,-33,12,8802,8500,-8070,-11,10,36
32767,32767,1824,-35,4,30,23714,24248,-1472,-4,-45,34,8856,8552,-8186,-22,14,42
32767,32662,1708,-14,3,35,23470,24236,-1222,-58,-27,21,8920,8460,-8272,-45,29,39
32767,32767,1632,-15,11,34,23384,24226,-1264,-87,-30,-4,8872,8424,-8228,-69,33,22
32767,32767,1690,-24,13,31,23540,24038,-1308,-107,-31,12,8848,8292,-8220,-91,32,4
32767,32767,1804,-35,11,45,23476,23860,-1176,-122,-25,19,8836,8152,-8182,-95,36,-3
32767,32767,1696,-63,21,65,23392,23834,-1114,-122,-23,11,8796,8286,-8254,-77,25,-3
32767,32767,1678,-106,43,105,23582,23892,-1262,-109,-15,21,8890,8496,-8264,-38,20,21
32767,32767,1306,-108,10,89,23538,24034,-1298,-108,-4,16,8940,8522,-8326,-22,17,29
32767,32260,1590,-107,9,75,23284,24114,-1258,-105,-21,3,8998,8488,-8340,-27,31,25
32767,32522,1510,-75,-17,80,23198,23964,-1210,-136,-38,-13,8942,8536,-8364,-42,43,19
32767,32708,1590,-98,-26,104,23554,23896,-1174,-136,-49,-22,8786,8414,-8346,-65,58,17
32767,32767,1690,-92,-41,39,23716,23954,-1262,-121,-40,-21,8694,8218,-8182,-80,49,5
32767,32767,1638,-115,-13,60,23388,24030,-1296,-125,-20,-18,8700,8356,-8276,-69,37,5
32767,32622,1734,-66,-26,50,23352,23940,-1398,-133,-32,-15,8750,8370,-8190,-55,28,25
32767,32767,1694,-99,-37,63,23538,23876,-1424,-135,-35,-13,8812,8390,-8124,-45,29,25
32767,32767,1754,-114,-26,55,23372,23850,-1484,-123,-28,-10,8720,8306,-8100,-52,22,13
32767,32767,1808,-94,-28,41,23440,23814,-1426,-111,-29,-5,8748,8262,-8082,-51,6,5
32767,32767,1720,-137,-24,55,23472,23842,-1490,-91,-25,7,8802,8336,-8110,-54,4,-5
32767,32767,1680,-148,-21,80,23324,23750,-1358,-99,-28,-3,8744,8436,-8084,-62,2,-10
32767,32748,1740,-135,-16,151,23642,23936,-1512,-91,-39,-16,8788,8520,-8150,-59,-8,-7
32767,32767,1732,-164,2,116,23926,24212,-1336,-72,-30,-4,8936,8588,-8342,-53,-7,0
32767,32558,1980,-231,-7,64,23322,24198,-1150,-127,-10,-14,8810,8516,-8370,-79,16,-6
32767,32208,1898,-220,-17,98,23142,24112,-1146,-135,-45,-22,8690,8462,-8120,-113,26,-24
32767,32412,1692,-137,-2,90,23454,23888,-1166,-148,-60,-17,8732,8360,-8118,-108,3,-19
32767,32767,1618,-115,-7,57,23432,23706,-1182,-151,-54,-12,8960,8228,-8212,-88,-7,-7
32767,32767,1664,-189,0,62,23300,23528,-1158,-154,-48,-15,8954,8226,-8230,-87,6,-10
32767,32767,1664,-211,-3,76,23600,23548,-1236,-139,-46,-1,8822,8210,-8284,-87,19,-17
32767,32767,1510,-200,-11,65,23662,23450,-1380,-118,-35,2,8726,8160,-8242,-74,11,-23
32767,32767,1338,-166,-1,85,23430,23568,-1202,-110,-20,-26,8922,8224,-8312,-56,-5,-30
32767,32767,1408,-125,13,122,23518,23698,-1272,-96,-29,-28,9074,8224,-8302,-52,5,-32
32767,32767,1484,-121,1,115,23238,23768,-1148,-92,-31,-21,8964,8178,-8294,-50,31,-38
32767,32674,1392,-125,2,140,23250,23846,-1338,-84,-42,-16,8812,8378,-8196,-46,31,-37
32767,32767,1460,-103,10,146,23614,23976,-1216,-87,-46,-10,8852,8520,-8218,-32,14,-18
32767,32767,1606,-179,-27,72,23636,24036,-1374,-117,-27,-14,8896,8464,-8330,-22,18,-2
32767,32767,1636,-236,-44,80,23386,23914,-1350,-145,-30,-19,8884,8374,-8160,-38,38,-9
32767,32710,1912,-210,-36,77,23334,23712,-1268,-174,-41,-23,8726,8292,-8130,-63,54,-16
32767,32767,1996,-158,-33,59,23546,23452,-1188,-191,-47,-24,8628,8226,-8058,-69,50,-20
32767,32767,1914,-182,-17,61,23598,23304,-1210,-162,-41,-24,8660,8146,-7918,-70,27,-31
32767,32767,1500,-215,-7,78,23520,23290,-1218,-132,-38,-33,8806,8198,-7988,-75,7,-43
32767,32308,1374,-235,-3,83,23366,23318,-1176,-101,-37,-33,8880,8178,-8118,-67,21,-36
32767,32402,1300,-189,-11,74,23402,23452,-1190,-75,-45,-25,8864,8276,-8216,-65,25,-41
32767,32418,1500,-168,-13,81,23472,23532,-1130,-73,-42,-23,8892,8370,-8246,-86,28,-50
32767,32672,1570,-149,-34,51,23526,23520,-1086,-85,-38,-31,8796,8250,-8178,-108,46,-68
32767,32767,1674,-139,-30,56,23366,23404,-1214,-98,-33,-43,8720,8168,-8202,-111,52,-74
32767,32767,1720,-136,-14,64,23256,23290,-1152,-120,-36,-63,8732,8140,-8190,-118,38,-63
32767,32767,1596,-150,-19,56,23280,23282,-1138,-141,-35,-68,8830,8020,-8218,-111,32,-43
32767,32767,1612,-177,-18,49,23322,23230,-1156,-141,-28,-53,8938,7958,-8158,-94,37,-38
32767,32767,1686,-210,-25,37,23278,23148,-1114,-132,-41,-50,8908,7974,-8186,-85,47,-59
32767,32742,1614,-222,-32,32,23378,23210,-1136,-124,-56,-65,8848,8072,-8156,-84,55,-71
32767,32492,1594,-219,-26,38,23500,23154,-1314,-124,-52,-75,8824,8120,-8134,-85,53,-63
32767,32366,1502,-181,-30,33,23332,23318,-1164,-141,-47,-70,8772,8110,-8208,-87,50,-44
32767,32546,1420,-158,-41,29,23282,23434,-1132,-206,-32,-73,8732,7838,-8104,-84,43,-45
32767,32722,1606,-167,-44,27,23022,23154,-1122,-231,-26,-53,8782,7804,-8024,-74,42,-68
32767,32624,1700,-179,-52,25,23012,22664,-992,-172,-57,-47,8750,7896,-8090,-74,44,-84
32767,32364,1594,-168,-49,27,23342,22486,-950,-83,-91,-66,8682,8022,-8162,-87,47,-81
32767,32282,1572,-139,-51,23,23780,22614,-806,11,-99,-75,8736,7992,-8116,-116,44,-65
32767,32326,1596,-92,-58,20,23762,23066,-890,63,-64,-63,8814,7894,-8126,-130,51,-70
32767,32486,1566,-117,-66,18,23314,23492,-1078,72,-41,-44,8796,7746,-8188,-134,55,-91
32767,32618,1554,-127,-73,24,23554,23876,-964,-20,-62,-48,8710,7642,-8218,-140,52,-109
32767,32650,1578,-146,-66,23,23610,23736,-958,-84,-50,-60,8752,7578,-8252,-147,49,-108
32767,32430,1676,-177,-59,25,23400,23404,-856,-128,-50,-66,8790,7532,-8348,-128,45,-98
32767,32146,1666,-166,-58,26,23208,23112,-900,-136,-56,-65,8868,7482,-8194,-84,41,-103
32767,32767,1774,-160,-77,39,23322,22978,-882,-97,-75,-49,8680,7494,-8038,-55,50,-116
32767,32767,1608,-335,-87,33,23510,22936,-932,-48,-76,-36,8532,7452,-8120,-80,41,-138
32767,32278,1346,-475,-104,45,23594,22922,-1002,-6,-61,-42,8578,7354,-8412,-76,24,-135
32767,31128,1610,-360,-81,46,23380,23042,-1100,15,-58,-46,8736,7326,-8576,-25,26,-120
32767,30650,1732,-114,-45,35,23290,23170,-1046,0,-59,-37,8752,7542,-8490,13,44,-95
32767,31124,1680,120,-13,18,23308,23236,-934,-26,-57,-28,8594,7732,-8222,-2,58,-73
32767,32424,1728,244,-19,10,23368,23146,-904,-28,-63,-24,8444,7706,-8074,-18,38,-65
32767,32767,1694,168,-36,16,23338,23020,-850,-31,-69,-32,8568,7550,-8118,-11,-7,-64
32767,32767,1842,-5,-45,15,23382,22852,-908,-28,-73,-35,8826,7516,-8274,8,-18,-66
32767,32767,1776,-152,-53,9,23404,22798,-1006,-3,-75,-28,8860,7606,-8370,12,7,-63
32767,32240,1702,-165,-50,3,23362,22946,-930,4,-69,-20,8664,7674,-8448,-13,34,-45
32767,32114,1844,-69,-47,-6,23388,23050,-942,-1,-61,-17,8592,7656,-8380,-33,34,-39
32767,32752,1950,-10,-48,-5,23332,22968,-992,-11,-61,-25,8644,7602,-8230,-55,27,-43
32767,32767,2014,-44,-35,-5,23384,22914,-1010,6,-66,-38,8730,7488,-8172,-77,27,-45
32767,32767,1994,-103,-30,-7,23358,22880,-904,28,-71,-45,8670,7426,-8122,-84,38,-40
32767,32562,1716,-116,-28,-15,23490,22988,-876,37,-66,-45,8768,7320,-8272,-61,39,-27
32767,32160,1540,-100,-28,-16,23418,23134,-882,47,-51,-36,8738,7234,-8242,-24,43,-21
32767,32216,1622,-41,-27,-25,23204,23258,-950,44,-49,-19,8638,7206,-8174,-15,41,-28
32767,32767,1746,-7,-36,-23,23316,23316,-1006,30,-69,-22,8524,7170,-8216,-24,26,-36
32767,32767,1896,-57,-42,-13,23444,23188,-1004,6,-65,-28,8698,7208,-8326,-11,15,-29
32767,32474,1866,-129,-35,-16,23588,22970,-1042,-14,-67,-26,8832,7350,-8288,17,22,-9
32767,31944,1874,-101,-22,-22,23488,22920,-994,-20,-53,-28,8732,7378,-8162,26,41,2
32767,32004,1858,-13,-10,-30,23336,22838,-992,-8,-44,-24,8614,7302,-8110,14,42,-6
32767,32767,1846,18,-14,-36,23094,22806,-932,4,-56,-24,8500,7292,-8162,-5,25,-29
32767,32767,1722,-53,-25,-33,23274,22726,-802,51,-77,-32,8634,7350,-8180,-26,12,-43
32767,32432,1748,-127,-27,-33,23388,22852,-820,74,-71,-42,8818,7412,-8424,-18,11,-34
32767,31900,1598,-107,-29,-30,23332,22904,-916,87,-68,-39,8798,7412,-8312,-6,45,-14
32767,31738,1716,-40,-25,-32,23526,23072,-740,57,-69,-46,8636,7388,-8304,-25,58,-9
32767,32116,1626,34,-20,-38,23488,23170,-942,68,-64,-41,8456,7206,-8186,-41,53,-15
32767,32767,1656,64,-27,-28,23186,23178,-830,67,-59,-18,8490,7090,-8258,-39,29,-26
32767,32767,1844,18,-26,-20,23326,23154,-960,45,-74,-21,8666,7102,-8276,-11,10,-22
32767,32767,1802,-58,-32,-21,23548,23166,-1040,26,-59,-40,8796,7238,-8404,17,27,-12
32767,32516,1890,-99,-34,-37,23654,23168,-1022,15,-55,-37,8770,7296,-8372,13,44,2
32767,32148,1770,-92,-22,-63,23242,23240,-1004,-11,-41,-33,8602,7268,-8284,0,48,3
32767,32242,1530,-47,-39,-67,23202,23062,-1106,0,-59,-28,8530,7134,-8220,-2,28,-3
32767,32422,1614,-21,-34,-49,23390,22994,-1030,5,-63,-31,8696,7114,-8250,14,12,-8
32767,32490,1634,-30,-35,-47,23580,22932,-1164,25,-69,-38,8688,7158,-8306,39,20,-12
32767,32144,1776,-37,-33,-23,23492,22920,-1194,75,-52,-33,8618,7274,-8366,35,45,-10
32767,31866,1650,-29,-27,-28,23298,23070,-1210,75,-57,-22,8478,7218,-8298,31,48,-5
32767,31762,1780,8,-13,-39,23518,23232,-1102,73,-61,-16,8508,7186,-8174,30,22,-3
32767,32286,1764,66,-12,-57,23722,23398,-1008,73,-55,-25,8628,7174,-8126,36,-11,-7
32767,32394,1716,70,-17,-23,23418,23476,-878,85,-34,-12,8760,7252,-8326,53,-6,-7
32767,32767,1862,58,-18,-19,23264,23498,-796,108,-52,-2,8620,7406,-8320,62,22,-10
32767,32524,1850,-14,-5,-36,23320,23560,-802,136,-69,-3,8574,7456,-8294,29,19,-15
32767,32484,1704,-17,-4,-37,23268,23480,-914,150,-80,2,8692,7450,-8296,-7,5,-18
32767,32316,1552,7,2,-31,23384,23434,-814,130,-95,8,8780,7300,-8366,-14,15,-10
32767,32746,1712,15,-20,-29,23786,23374,-848,79,-95,12,8774,7194,-8378,-3,27,-9
32767,32767,1752,-35,-10,-24,23748,23256,-962,27,-63,14,8612,7144,-8346,0,40,-15
32767,32446,1768,-42,-17,-20,23450,23032,-1046,4,-50,8,8654,7156,-8342,-9,28,-15
32767,32168,1626,-32,-9,-21,23202,22762,-1034,33,-61,-14,8804,7104,-8468,10,29,-10
32767,32148,1680,18,-20,-22,23182,22722,-1090,99,-72,-19,8692,7018,-8418,52,52,0
32767,32582,1496,21,-19,-34,23322,22912,-1136,149,-85,-15,8650,7060,-8282,76,48,2
32767,32720,1462,22,-30,-46,23444,23172,-1218,177,-80,9,8556,7112,-8342,100,27,6
32767,32767,1554,19,-47,-34,23420,23376,-1258,191,-74,20,8558,7312,-8514,133,22,23
32767,32767,1648,11,-43,-21,23466,23566,-1204,177,-79,4,8496,7530,-8460,165,31,63
32767,32646,1700,19,-44,-24,23560,23722,-1170,151,-76,-7,8518,7598,-8530,169,36,92
32767,32718,1894,42,-39,-32,23632,23848,-1088,109,-46,0,8624,7572,-8508,164,36,89
32767,32732,2064,99,-22,-40,23360,23576,-1078,75,-26,24,8794,7534,-8400,148,40,73
32767,32767,2142,119,-6,-59,23394,23378,-882,96,-44,34,8826,7504,-8222,84,43,48
32767,32767,1924,101,9,-64,23862,23618,-522,186,-36,47,8752,7552,-8024,28,45,43
32767,32767,1822,68,1,-54,23832,23866,-576,240,-20,64,8710,7406,-8074,13,44,54
32767,32638,1656,21,0,-37,23558,24250,-706,240,-8,80,8640,7340,-8328,35,39,56
32767,32060,1488,13,-7,-30,23382,24358,-836,202,-35,98,8712,7310,-8522,61,44,45
32767,31904,1590,60,-11,-36,23240,24258,-1088,136,-60,98,8736,7278,-8434,57,62,26
32767,32086,1574,103,-3,-42,23352,24102,-1036,60,-82,81,8658,7154,-8448,44,68,7
32767,32614,1600,148,-5,-36,23674,24000,-1232,-8,-71,76,8582,7084,-8374,47,59,-1
32767,32767,1580,138,-4,-25,23650,23700,-1400,-39,-45,61,8558,7120,-8552,95,43,11
32767,32704,1654,96,-14,-22,23290,23380,-1304,-52,-45,38,8670,7334,-8448,177,44,37
32767,32767,1378,91,-20,-26,23308,23092,-1330,3,-64,21,8584,7544,-8434,208,47,48
32767,32767,1430,58,-27,-28,23550,23012,-1304,79,-57,3,8654,7712,-8432,204,33,48
32767,32767,1492,51,-34,-22,23436,23262,-1452,164,-48,7,8710,7708,-8532,177,29,46
32767,32767,1664,83,-29,-4,23344,23944,-1430,197,-47,25,8430,7908,-8606,136,40,62
32767,32767,1890,137,-23,-15,23510,24506,-1504,187,-48,54,8146,7968,-8406,107,31,98
32767,32767,1790,165,-13,-14,23532,24766,-1396,120,-38,64,8256,7876,-8282,88,-18,129
32767,32767,1936,170,-13,-8,23484,24702,-1456,17,-35,56,8510,7750,-8150,86,-65,154
32767,32767,2050,138,-14,-2,23500,24424,-1472,-32,-35,51,8906,7616,-8446,135,-80,156
32767,32767,2280,81,0,-5,23954,24090,-1506,-41,-32,44,8974,7834,-8616,148,-45,146
32767,32767,2390,72,23,-10,23964,24022,-1486,-18,-13,42,8814,7948,-8554,115,4,135
32767,32767,2328,27,30,-27,23850,24118,-1426,-15,-4,39,8434,8200,-8266,53,17,111
32767,32767,1800,-50,47,-29,23586,24098,-1306,-26,-15,23,8494,8300,-8160,1,-23,87
32767,32767,1332,-123,43,-22,23502,23904,-1234,-37,-31,13,8924,8176,-8330,-29,-46,79
32767,32340,1350,-162,42,-28,23508,23756,-1038,-17,-38,7,9060,7954,-8444,-50,-2,71
32767,31674,1416,-72,50,-19,23330,23668,-978,17,-47,11,8838,7840,-8544,-81,54,62
32767,31656,1234,84,41,-21,23394,23750,-972,46,-53,25,8488,7578,-8356,-100,60,50
32767,32767,1070,215,34,-15,23504,24054,-1118,63,-63,34,8656,7324,-8258,-75,30,37
32767,32767,1268,165,32,-6,23602,24202,-1152,34,-53,29,8808,7286,-8294,-30,22,20
32767,32767,1396,70,17,16,23518,24168,-1144,-4,-44,21,8700,7432,-8356,28,30,19
32767,32767,1454,-20,11,22,23442,24072,-1098,-30,-43,8,8640,7682,-8514,79,26,28
32767,32767,1378,-66,11,30,23444,24000,-1250,-47,-41,-6,8710,7964,-8644,98,25,31
32767,32767,1190,-40,30,45,23622,24176,-1226,-53,-28,-4,8886,8208,-8618,72,31,30
32767,32767,1090,67,32,60,23660,24172,-1368,-57,-12,3,9072,8322,-8598,44,49,39
32767,32767,1260,99,33,54,23490,24224,-1352,-58,-12,5,9112,8444,-8546,24,73,49
32767,32767,1292,-88,-23,39,23390,24370,-1370,-69,-23,8,9076,8346,-8542,-12,84,44
32767,32767,1342,-210,-66,28,23630,24406,-1464,-69,-34,24,8836,8172,-8480,-50,106,32
32767,32232,1400,-163,-74,4,23432,24344,-1416,-98,-26,18,8518,8028,-8452,-79,106,25
32767,32240,1538,-23,-70,-2,23730,24460,-1586,-108,-32,26,8416,7810,-8356,-89,88,24
32767,32767,1768,88,-59,4,23880,24438,-1504,-134,-16,27,8372,7638,-8158,-70,56,20
32767,32767,1822,83,-49,13,23884,24474,-1294,-179,4,3,8518,7566,-8262,-27,26,19
32767,32767,1890,2,-42,18,23338,24206,-1286,-228,6,-23,8622,7742,-8310,23,11,20
32767,32767,1828,-85,-35,18,23018,23850,-1092,-250,-24,-33,8636,8044,-8460,51,4,17
32767,32767,1496,-100,-22,28,23536,23648,-1092,-173,-38,-11,8594,8220,-8508,30,5,13
32767,32767,1560,-34,-8,37,23416,23610,-1194,-101,-37,22,8698,8268,-8456,-10,5,4
32767,32767,1516,-11,-4,45,23620,23816,-1362,-35,-33,24,8676,8266,-8476,-53,3,-4
32767,32767,1470,-68,2,61,23990,24264,-1314,-32,-11,17,8690,8200,-8422,-90,-2,-6
32767,32767,1322,-123,-18,48,23756,24376,-1314,-99,9,-4,8800,8108,-8502,-121,1,-8
32767,32767,1400,-180,-16,52,23032,24258,-1272,-207,26,-28,8798,8024,-8542,-140,16,-11
32767,32767,1452,-137,-20,65,23174,23958,-1312,-258,-5,-28,8748,7912,-8532,-143,24,-30
32767,32767,1470,-78,-5,112,23712,23738,-1094,-253,-5,-27,8758,7894,-8584,-136,30,-39
32767,32767,1556,-94,-8,91,23622,23588,-1224,-219,18,-25,8758,7876,-8600,-129,38,-44
32767,32767,1454,-129,25,141,23240,23696,-1042,-160,2,-35,8682,7902,-8500,-114,35,-34
32767,32767,1226,-125,-11,91,23404,24052,-986,-129,-28,-52,8732,7928,-8618,-89,12,-16
32767,32767,1300,-264,-6,100,23598,24332,-898,-135,-37,-28,8854,7936,-8654,-57,20,1
32767,32767,1396,-333,-59,43,23492,24326,-1000,-162,-35,12,8750,7910,-8562,-64,46,-17
32767,32502,1530,-329,-54,44,23408,24030,-1102,-191,-54,12,8512,7888,-8316,-86,56,-41
32767,32692,1666,-192,-48,61,23546,23722,-1226,-214,-64,-18,8370,7826,-8284,-101,35,-46
32767,32767,1636,-117,-25,69,23772,23518,-1280,-232,-45,-46,8506,7728,-8328,-88,9,-36
32767,32767,1512,-89,11,106,23582,23408,-1344,-229,-20,-44,8818,7842,-8368,-61,-3,-15
32767,32767,1296,-108,12,120,23412,23288,-1334,-208,-14,-34,8944,8064,-8394,-44,0,-15
32767,32767,1236,-200,-25,60,23368,23190,-1316,-197,-7,-31,8870,8062,-8464,-56,24,-22
32767,32767,1472,-258,-40,70,23400,23334,-1246,-176,-6,-29,8720,7940,-8514,-121,47,-53
32767,32767,1392,-234,-41,94,23354,23476,-1194,-187,4,-35,8536,7828,-8334,-185,44,-74
32767,32767,1490,-206,-31,128,23298,23708,-986,-226,24,-37,8500,7758,-8422,-186,21,-64
32767,32767,1496,-178,-34,126,23286,23630,-898,-235,24,-31,8606,7796,-8576,-140,6,-42
32767,32767,1506,-185,-36,99,23380,23436,-978,-256,14,-23,8796,7748,-8498,-104,5,-28
32767,32767,1750,-281,-43,81,23420,23288,-916,-249,5,-29,8794,7850,-8370,-108,24,-41
32767,32767,1900,-350,-47,64,23566,23218,-802,-252,4,-35,8634,7804,-8358,-129,30,-44
32767,32767,2000,-314,-29,58,23558,23112,-974,-248,16,-28,8602,7764,-8486,-128,18,-31
32767,32767,1898,-240,-1,57,23386,23086,-990,-209,25,-26,8602,7752,-8418,-111,11,-7
32767,32767,1736,-179,11,52,23162,22864,-994,-113,-14,-25,8720,7754,-8342,-106,3,0
32767,32767,1532,-205,19,39,23336,22986,-986,-44,-45,-21,8762,7712,-8256,-109,-8,-9
32767,32767,1240,-298,1,34,23490,23280,-1180,4,-51,-19,8892,7570,-8316,-118,-3,-28
32767,32767,1190,-361,-13,37,23408,23736,-1346,21,-43,-10,8810,7602,-8406,-136,15,-42
32767,32484,1148,-330,-31,42,23374,24062,-1516,-21,-37,-1,8586,7570,-8220,-162,34,-63
32767,32554,1148,-254,-42,48,23490,24022,-1530,-78,-38,0,8438,7564,-8232,-167,25,-75
32767,32660,1288,-204,-46,65,23508,23662,-1382,-121,-28,-11,8390,7664,-8248,-175,10,-78
32767,32767,1326,-221,-59,70,23504,23222,-1370,-88,-47,-13,8498,7576,-8230,-186,-4,-72
32767,32767,1378,-271,-63,83,23478,23266,-1342,-37,-42,-6,8714,7460,-8236,-192,-8,-64
32767,32767,1606,-296,-51,84,23404,23448,-1340,-6,-36,8,8748,7374,-8216,-181,4,-58
32767,32642,1742,-279,-34,93,23284,23548,-1210,-26,-36,9,8600,7370,-8188,-159,-2,-59
32767,32767,1742,-243,-24,89,23330,23412,-1288,-72,-39,0,8568,7448,-8190,-140,-22,-55
32767,32767,1844,-305,-13,97,23376,22994,-1208,-90,-38,-14,8640,7598,-8162,-143,-40,-45
32767,32606,1568,-338,-17,118,23286,22718,-1106,-80,-39,-25,8676,7468,-8256,-134,-58,-33
32767,32316,1560,-320,-14,121,23262,22694,-962,-36,-37,-21,8842,7292,-8336,-90,-64,-22
32767,31838,1714,-243,1,119,23254,23020,-824,6,-34,10,8878,7220,-8562,-56,-39,-15
32767,31990,1816,-113,14,122,23252,23222,-826,25,-37,15,8568,7320,-8530,-57,-10,-17
32767,32534,1660,-3,27,110,23282,23330,-862,2,-54,-1,8468,7332,-8292,-60,-26,-21
32767,32767,1540,-27,25,91,23420,23290,-978,-29,-46,-17,8736,7416,-8302,-43,-55,-15
32767,32767,1428,-192,26,70,23250,23090,-1122,-36,-33,-18,9002,7514,-8280,-24,-45,-1
32767,32767,1296,-272,17,64,23244,22984,-1106,-23,-39,-16,9048,7510,-8406,6,-3,14
32767,32356,1158,-143,0,50,23338,23130,-1122,-4,-42,-18,8880,7592,-8460,5,33,22
32767,32554,1194,-30,4,40,23398,23526,-1190,-5,-40,-7,8632,7614,-8432,-25,48,22
32767,32767,1316,7,-12,31,23354,23666,-1110,-42,-44,3,8634,7472,-8262,-54,37,12
32767,32767,1256,-79,-25,19,23484,23554,-1244,-70,-49,-4,8814,7366,-8236,-62,27,8
32767,32767,1380,-194,-42,9,23322,23346,-1228,-104,-47,-13,8870,7316,-8198,-56,40,17
32767,32392,1424,-220,-49,4,23318,23264,-1222,-120,-45,-21,8802,7230,-8150,-49,57,22
32767,31886,1352,-142,-52,6,23312,23084,-1268,-110,-41,-26,8516,7270,-8026,-48,60,26
32767,31830,1214,-38,-43,6,23302,23074,-1214,-107,-44,-25,8474,7060,-7928,-33,24,13
32767,32580,1266,31,-39,3,23380,23052,-1062,-75,-49,-10,8530,7118,-7964,-14,-1,-5
32767,32767,1536,-19,-45,17,23456,23060,-1090,-64,-37,-1,8706,7260,-7960,8,-11,-3
32767,32767,1832,-117,-50,29,23282,22932,-1158,-37,-32,-2,8662,7490,-8068,32,-2,9
32767,32468,1832,-177,-42,34,23258,23068,-1068,-31,-35,-18,8552,7760,-8148,31,0,20
32767,31998,1570,-154,-29,29,23204,23152,-998,-49,-31,-20,8600,7584,-8036,0,-15,21
32767,32056,1446,-71,-12,36,23224,23236,-1020,-73,-28,-9,8764,7388,-7996,-25,-23,9
32767,32362,1290,14,-8,42,23280,23164,-972,-92,-28,-2,8834,7270,-8142,-41,-12,-7
32767,32767,1322,4,-9,43,23306,23192,-1024,-109,-27,-8,8782,7326,-8154,-41,8,-15
32767,32767,1390,-91,-13,44,23314,23126,-972,-126,-26,-17,8706,7564,-8208,-39,12,-3
32767,32767,1598,-190,-23,38,23198,23050,-1034,-130,-34,-22,8734,7588,-8206,-46,6,12
32767,32544,1532,-145,-24,34,23270,23028,-922,-131,-43,-16,8800,7510,-8236,-58,17,16
32767,32566,1384,-87,-16,29,23428,22994,-1112,-114,-47,-4,8712,7312,-8146,-69,28,8
32767,32767,1308,-75,-13,29,23398,22986,-1226,-102,-38,-3,8738,7258,-8116,-75,28,-2
32767,32767,1262,-118,-19,20,23370,23076,-1110,-95,-33,-18,8732,7122,-8048,-56,18,-5
32767,32767,1390,-189,-30,19,23414,23088,-1178,-106,-22,-22,8760,7178,-8082,-21,22,-2
32767,32564,1388,-209,-37,20,23284,23000,-1160,-101,-20,-17,8628,7328,-7978,4,26,6
32767,32348,1320,-163,-41,20,23220,23006,-1046,-99,-26,-18,8568,7330,-8032,16,1,4
32767,32352,1332,-82,-45,28,23240,22912,-1146,-90,-26,-15,8780,7406,-8046,13,-4,0
32767,32626,1236,-57,-48,31,23216,22978,-1152,-90,-34,-9,8762,7400,-8014,-4,12,-10
32767,32767,1440,-110,-41,30,23206,23068,-1012,-72,-47,-12,8650,7428,-7914,-26,24,-23
32767,32736,1626,-145,-44,36,23284,23118,-1028,-95,-42,-9,8496,7464,-7928,-45,18,-29
32767,32602,1624,-154,-44,41,23252,23052,-1104,-110,-42,-2,8526,7416,-7940,-57,1,-21
32767,32572,1488,-141,-32,50,23178,23018,-992,-133,-33,-11,8672,7380,-8054,-61,-9,-12
32767,32726,1500,-138,-27,62,23154,22918,-1088,-143,-33,-11,8806,7380,-8118,-61,-3,-16
32767,32726,1656,-180,-25,51,23192,22774,-996,-158,-27,-11,8792,7412,-8098,-72,19,-32
32767,32436,1734,-215,-19,49,23370,22502,-1146,-124,-33,-8,8684,7466,-8050,-92,27,-34
32767,32340,1588,-165,-7,50,23298,22832,-1154,-63,-40,-5,8608,7396,-8020,-95,17,-23
32767,32767,1482,-147,-13,52,23312,23028,-1134,-94,-19,-4,8722,7332,-8022,-84,7,-14
32767,32612,1218,-200,-8,44,23388,23176,-1040,-149,-3,-2,8832,7298,-8100,-75,8,-14
32767,32468,1204,-213,-26,41,23156,23018,-1022,-193,1,-1,8824,7184,-8024,-62,22,-19
32767,32490,1334,-196,-35,41,23050,22860,-960,-221,-7,-13,8712,7148,-8094,-50,31,-19
32767,32362,1340,-202,-36,36,23148,22550,-902,-186,-28,-14,8672,7202,-8030,-53,33,-20
32767,32240,1296,-159,-35,38,23166,22420,-948,-147,-44,-22,8722,7222,-8118,-54,26,-26
32767,32444,1470,-81,-29,36,23218,22492,-994,-100,-47,-17,8742,7234,-8014,-46,28,-25
32767,32767,1550,-103,-31,29,23222,22700,-1070,-76,-52,2,8612,7284,-8066,-54,35,-21
32767,32767,1516,-180,-32,37,23264,22814,-1148,-76,-47,9,8544,7320,-8036,-72,33,-19
32767,32308,1470,-216,-23,34,23436,22770,-1140,-88,-45,0,8536,7268,-7974,-76,18,-16
32767,32546,1396,-196,-29,41,23456,22662,-1122,-112,-34,-18,8726,7226,-7978,-82,20,-18
32767,32580,1414,-228,-27,43,23052,22556,-1194,-134,-16,-24,8752,7116,-7970,-93,23,-28
32767,32258,1452,-249,-11,49,23008,22412,-1248,-131,-25,-26,8710,7044,-8070,-90,22,-28
32767,31754,1406,-206,-13,54,23132,22314,-1170,-116,-36,-35,8760,7070,-8036,-64,27,-23
32767,32098,1334,-130,-14,44,23436,22240,-972,-65,-52,-43,8642,7074,-7944,-60,35,-31
32767,32348,1354,-126,-10,54,23644,22340,-936,-35,-44,-40,8596,7066,-7918,-70,35,-51
32767,32594,1216,-156,-22,59,23506,22430,-826,-19,-41,-44,8666,7136,-7850,-90,20,-62
32767,32736,1212,-213,-24,67,23258,22600,-848,-18,-48,-54,8752,7084,-8034,-90,10,-60
32767,32312,1212,-236,-40,66,23150,22624,-712,-3,-66,-58,8720,7216,-8150,-90,25,-53
32767,32298,1358,-247,-43,70,23426,22648,-656,7,-93,-44,8602,7134,-8194,-104,35,-52
32767,32208,1610,-268,-31,74,23492,22838,-774,14,-76,-37,8562,7076,-8198,-117,36,-62
32767,31890,1506,-248,-27,69,23268,22854,-1006,17,-53,-22,8688,7004,-8080,-115,31,-70
32767,31808,1578,-199,-17,64,23016,22884,-980,-2,-60,-10,8720,6904,-7992,-111,36,-70
32767,32310,1454,-183,-2,53,23048,22828,-1072,-20,-70,-13,8688,6808,-7966,-98,34,-75
32767,32416,1422,-180,-7,50,23240,22640,-1084,-11,-83,-17,8666,6730,-8022,-77,21,-71
32767,32102,1402,-189,-2,52,23316,22406,-1130,30,-95,-10,8734,6798,-8008,-52,12,-68
32767,32026,1160,-175,-21,41,23366,22316,-1084,66,-103,-3,8784,6882,-8136,-48,24,-67
32767,31934,1032,-193,-32,34,23312,22382,-1196,147,-90,-5,8798,6852,-8012,-53,38,-78
32767,31752,1080,-171,-34,38,23216,22582,-1310,193,-96,0,8830,6836,-8110,-59,42,-97
32767,31980,1276,-149,-52,30,23154,22794,-1062,218,-107,-5,8898,6756,-8000,-80,61,-106
32767,31926,1290,-167,-61,27,23292,22970,-864,179,-106,-11,8796,6760,-7990,-96,76,-97
32767,31306,1258,-147,-64,28,23462,23022,-858,119,-78,3,8752,6710,-8004,-89,68,-77
32767,31632,1198,-55,-75,19,23410,22740,-904,70,-47,23,8750,6728,-8034,-48,50,-57
32767,32120,1394,-52,-85,3,23194,22396,-886,79,-57,6,8824,6772,-8052,-7,40,-46
32767,32034,1650,-109,-92,-9,23120,22328,-762,114,-83,-29,8786,6778,-8114,6,54,-41
32767,31850,1698,-142,-112,-28,23346,22536,-760,167,-89,-19,8548,6806,-7980,-3,65,-41
32767,31654,1780,-105,-107,-31,23258,22798,-646,170,-69,-3,8438,6852,-8012,-22,60,-38
32767,31984,1754,-25,-95,-27,23166,22972,-824,153,-63,10,8422,6828,-8010,-17,34,-24
32767,32444,1596,13,-86,-20,23178,23022,-870,123,-81,12,8660,6750,-8196,10,17,-4
32767,32767,1780,-58,-82,-31,23238,23036,-792,95,-93,-7,8830,6762,-8318,11,24,-8
32767,32570,1736,-159,-89,-55,23382,22930,-940,103,-92,-27,8958,6790,-8474,-12,49,-16
32767,32002,1640,-200,-92,-62,23318,22918,-816,107,-97,-39,8850,6740,-8520,-24,92,-11
32767,31380,1590,-160,-91,-66,23282,22970,-866,103,-102,-37,8604,6724,-8292,-38,116,-5
32767,31250,1412,-18,-77,-73,23552,23002,-842,108,-98,-16,8522,6576,-8238,-37,100,8
32767,31684,1302,140,-61,-60,23550,22956,-1016,108,-74,13,8632,6408,-8334,15,72,24
32767,32048,1204,203,-44,-49,23272,22914,-1068,128,-83,12,8752,6236,-8440,100,67,32
32767,32210,1388,165,-53,-75,23304,23076,-1072,134,-102,-5,8558,6330,-8214,160,87,30
32767,32280,1692,70,-95,-91,23522,23232,-1078,116,-93,-10,8330,6560,-7972,142,83,21
32767,32252,1502,62,-110,-75,23552,23354,-1066,86,-71,3,8314,6716,-7852,129,37,18
32767,32218,1374,89,-98,-52,23396,23284,-1122,48,-55,11,8632,6852,-8244,148,-5,31
32767,31780,1562,105,-81,-48,23238,22956,-1152,57,-64,7,8894,6992,-8366,166,18,50
32767,31712,1768,102,-79,-52,23260,22836,-1202,89,-74,-12,8688,7094,-8346,139,66,47
32767,31740,1806,102,-79,-53,23392,22908,-928,124,-77,-11,8388,7030,-8136,64,81,26
32767,32446,1794,82,-99,-81,23536,23022,-904,135,-68,-7,8354,6914,-8046,16,49,3
32767,32478,1810,4,-96,-86,23380,23186,-1008,128,-62,2,8530,6764,-8144,19,23,3
32767,31932,1872,-13,-77,-52,23236,23244,-848,118,-61,14,8484,6742,-8280,32,41,13
32767,31724,1728,64,-51,-31,23282,23190,-976,108,-71,7,8486,6850,-8444,62,47,26
32767,31492,1718,130,-19,-33,23302,23128,-856,131,-76,-1,8448,6918,-8360,70,40,39
32767,32124,1860,172,-23,-41,23476,23184,-972,119,-75,-17,8606,6858,-8284,64,30,36
32767,32430,1928,113,-19,-62,23642,23304,-956,101,-59,-13,8684,6780,-8062,53,36,18
32767,32462,1872,90,-23,-50,23436,23428,-994,82,-34,-2,8578,6796,-8166,57,38,11
32767,32496,1740,119,-14,-37,23174,23312,-1066,81,-58,3,8544,6870,-8314,79,17,21
32767,32484,1618,158,-4,-14,23510,23336,-1178,92,-74,-31,8764,6874,-8526,99,14,45
32767,32616,1734,143,-6,-17,23484,23302,-1236,113,-59,-30,8762,6960,-8462,83,43,42
32767,32767,1690,56,-21,-41,23400,23334,-1122,94,-58,-13,8574,6938,-8226,42,54,23
32767,32628,1470,-1,-32,-40,23246,23360,-1276,108,-41,-9,8564,6854,-8282,36,40,10
32767,32588,1522,5,-47,-32,23236,23394,-1182,105,-67,-2,8684,6878,-8448,64,32,13
32767,32298,1592,17,-44,-24,23434,23412,-1022,110,-92,-19,8646,6884,-8500,90,54,22
32767,32058,1704,48,-45,-38,23590,23446,-1114,127,-77,-22,8570,6816,-8466,93,72,25
32767,32088,1538,74,-48,-53,23460,23490,-1118,138,-74,-10,8536,6830,-8350,88,64,22
32767,32466,1502,83,-63,-68,23346,23750,-1226,130,-64,-4,8566,6786,-8206,88,47,11
32767,32390,1630,77,-64,-61,23502,23766,-1062,99,-65,-3,8470,6810,-8260,107,43,8
32767,32280,1718,128,-59,-46,23614,23694,-1150,51,-64,-7,8416,6988,-8398,136,29,10
32767,32434,1804,151,-51,-36,23520,23646,-1050,28,-36,-5,8410,7086,-8494,149,17,18
32767,32614,1970,134,-38,-58,23456,23512,-904,1,-28,7,8536,7160,-8400,122,21,21
32767,32530,1896,72,-43,-56,23456,23376,-862,28,-14,7,8520,7186,-8238,71,27,13
32767,32550,1916,46,-43,-78,23236,23412,-1096,121,-38,14,8532,7106,-8234,38,22,4
32767,32767,1600,48,-60,-64,23118,23586,-1052,190,-64,15,8540,7004,-8262,41,13,-3
32767,32767,1720,23,-48,-45,23630,23928,-1238,207,-99,12,8708,7074,-8658,62,18,-7
32767,32408,1876,38,-39,-15,23824,24108,-1384,184,-91,16,8738,7090,-8718,49,50,0
32767,32308,1754,50,-27,-34,23634,24112,-1352,156,-85,12,8676,7066,-8482,34,71,8
32767,32382,1694,70,-27,-48,23640,24030,-1446,112,-88,-9,8554,6872,-8452,21,64,0
32767,32767,1600,79,-47,-76,23768,23894,-1464,90,-78,-19,8582,6714,-8360,42,41,-12
32767,32767,1574,57,-70,-46,23466,23724,-1578,81,-61,-10,8682,6632,-8532,83,30,-16
32767,32688,1888,9,-55,-70,23418,23596,-1452,127,-77,5,8676,6672,-8616,117,53,-10
32767,32324,1858,56,-52,-55,23746,23788,-1354,144,-74,5,8472,6922,-8500,142,68,0
32767,32256,1812,127,-22,-46,23592,24012,-1218,131,-13,25,8350,7092,-8494,151,52,9
32767,32594,1706,190,-24,-57,23128,23876,-1160,104,6,59,8540,7122,-8416,145,25,-3
32767,32767,1800,132,-37,-60,23176,23744,-1110,99,-16,67,8690,7098,-8352,123,24,-19
32767,32767,1838,14,-42,-65,23322,23802,-1086,151,-54,57,8718,7170,-8454,94,46,-25
32767,32767,1726,-25,-49,-60,23518,24014,-1002,140,-71,42,8458,7188,-8398,67,66,-21
32767,32767,1736,5,-43,-48,23672,24154,-948,129,-63,51,8284,7276,-8424,48,46,-10
32767,32767,1760,33,-41,-37,23604,24252,-998,127,-49,69,8348,7176,-8508,43,17,5
32767,32767,1920,52,-48,-10,23704,24266,-852,98,-56,73,8502,7052,-8728,56,24,1
32767,32662,1994,64,-34,1,23830,24186,-888,105,-63,70,8688,6984,-8738,80,43,-1
32767,32767,2020,87,-21,-37,23750,24148,-998,109,-60,63,8756,6986,-8778,87,61,-7
32767,32767,1996,97,3,-38,23822,24070,-1020,102,-69,49,8694,7022,-8714,75,74,-19
32767,32767,1880,130,12,-31,24022,24144,-1132,98,-63,26,8676,7014,-8664,86,70,-11
32767,32767,1716,131,15,-44,23798,24242,-1272,74,-51,13,8728,7050,-8690,117,72,6
32767,32767,1548,111,4,-42,23156,24114,-1396,47,-28,5,8728,7140,-8774,131,79,13
32767,32767,1428,97,-16,-38,23116,24194,-1518,60,-47,26,8724,7108,-8768,110,91,3
32767,32767,1538,77,-37,-48,23862,24354,-1314,62,-74,22,8650,6988,-8726,93,106,-10
32767,32767,1596,76,-51,-46,23896,24480,-1300,11,-54,-1,8504,7124,-8638,78,124,-18
32767,32767,1416,114,-70,-57,23428,24452,-1396,-35,-43,-5,8326,7048,-8362,65,97,-8
32767,32767,1416,133,-87,-47,23470,24468,-1382,-62,-39,-15,8528,6958,-8482,83,71,-3
32767,32767,1612,65,-104,-11,23648,24408,-1306,-56,-36,-21,8642,6838,-8730,103,77,-3
32767,32767,1866,50,-98,14,23626,24306,-1316,-58,-31,-7,8540,6964,-8876,89,108,-17
32767,32767,2024,112,-84,-2,23420,24264,-1362,-40,-43,10,8368,7084,-8796,65,122,-23
32767,32730,2040,152,-55,-11,23808,24534,-1494,-11,-50,21,8192,7204,-8618,43,105,-12
32767,32767,1978,201,-31,7,24080,24996,-1664,-25,-29,77,8288,7150,-8500,43,60,7
32767,32767,2116,164,-19,27,23894,25090,-1632,-47,-7,87,8594,7004,-8564,74,30,24
32767,32767,2224,92,-7,38,23866,25044,-1628,-99,-9,63,8692,7152,-8928,130,50,58
32767,32767,2170,84,-8,29,23680,24800,-1394,-181,-8,29,8604,7332,-8984,143,74,78
32767,32767,2146,105,-7,18,23646,24442,-1332,-210,-10,20,8492,7506,-8936,116,66,83
32767,32767,2204,76,-6,15,23540,24146,-1386,-192,-14,45,8426,7708,-8700,65,38,84
32767,32767,2052,45,-9,15,23306,23726,-1116,-124,-47,55,8354,7568,-8636,16,15,83
32767,32767,1948,39,-32,9,23638,24004,-1456,-52,-55,24,8400,7220,-8674,-21,4,65
32767,32767,1744,50,-43,-3,23468,24410,-1410,-26,-40,57,8550,6912,-8896,-53,7,31
32767,32767,1630,36,-35,5,23092,24296,-1272,-36,-41,46,8710,6910,-8990,-65,23,0
32767,32767,1770,58,-39,19,23326,24206,-1148,-110,-65,-4,8476,7308,-8858,-59,46,6
32767,32767,1790,59,-26,22,23580,24090,-1328,-131,-50,-19,8308,7424,-8810,-55,45,36
32767,32767,1696,-11,-24,35,23436,23800,-1262,-149,-40,-10,8278,7308,-8744,-57,19,40
32767,32767,1762,-72,-31,37,23444,23788,-1298,-94,-49,-19,8546,7112,-8952,-52,3,24
32767,32767,1846,-93,-24,35,23822,24436,-1276,-38,-16,3,8670,7046,-8948,-35,11,13
32767,32767,1828,-59,-32,33,23410,24614,-1288,-66,-6,3,8654,7050,-8896,-21,26,4
32767,32767,1910,-47,-27,44,23370,24424,-1304,-123,-21,-16,8610,7130,-8812,-22,31,-3
32767,32767,1546,-23,5,124,23550,24122,-1302,-134,-42,-22,8614,7340,-8862,-20,26,1
32767,32767,1566,-19,11,154,23778,24028,-1280,-120,-42,-30,8790,7622,-9024,-26,25,20
32767,32767,1568,-97,12,198,23620,24136,-1252,-105,-27,-22,8856,7806,-9204,-41,51,30
32767,32767,1470,-210,-21,158,23394,24192,-1368,-98,-30,-7,8790,7802,-9110,-96,79,23
32767,32767,1370,-227,-47,60,23368,24220,-1428,-109,-42,-19,8674,7512,-8970,-158,92,9
32767,32767,1694,-172,-40,75,23736,24312,-1428,-102,-39,-16,8486,7120,-9068,-184,95,1
32767,32767,1944,-93,-50,92,23828,24338,-1390,-113,-27,-13,8312,6776,-9014,-171,86,-1
32767,32767,2004,-107,-58,92,23374,24264,-1352,-134,-8,-19,8198,6782,-8920,-121,74,5
32767,32767,1726,-130,-40,156,23328,24142,-1356,-145,-19,-11,8290,6860,-8858,-61,45,8
32767,32767,1758,-157,-23,4,23428,24034,-1376,-162,-42,-13,8474,6990,-9040,-7,32,7
32767,32767,1908,-162,-42,15,23522,24024,-1292,-157,-33,-22,8436,6958,-9030,-7,47,3
32767,32767,1950,-167,-47,20,23518,23844,-1396,-149,-30,-15,8232,7004,-8750,-36,53,-5
32767,32767,1854,-133,-51,56,23512,23816,-1346,-126,-35,-34,8156,6936,-8830,-26,24,-9
32767,32767,1864,-159,-15,39,23660,23890,-1308,-110,-22,-32,8344,7070,-8864,8,-6,-18
32767,32767,1666,-107,-19,34,23610,23892,-1376,-118,-11,-3,8530,7376,-8956,13,-6,-22
32767,32767,1716,-125,-3,47,23504,24094,-1128,-115,-16,-11,8560,7556,-9014,-17,5,-15
32767,32767,1786,-179,-23,34,23296,24082,-1236,-139,-20,-27,8594,7526,-8998,-62,9,-13
32767,32767,1922,-238,-29,43,23420,24070,-1334,-132,-21,-17,8628,7346,-8996,-101,14,-15
32767,32767,1956,-216,-24,53,23736,24126,-1248,-138,-14,-9,8570,7092,-9006,-148,32,-29
32767,32767,1806,-145,-7,66,23540,23970,-1360,-158,2,-10,8412,6938,-8866,-143,29,-39
32767,32767,1798,-50,13,76,23410,23816,-1214,-156,-15,-19,8408,6978,-8890,-112,12,-42
32767,32767,1886,-102,4,65,23658,23738,-1286,-141,-26,-35,8508,6856,-8960,-86,0,-40
32767,32767,1842,-202,-4,70,23660,23594,-1118,-117,-25,-42,8436,6736,-9022,-72,12,-38
32767,32767,1714,-220,-7,72,23630,23546,-1138,-97,-29,-45,8448,6868,-8992,-53,11,-44
32767,32767,1532,-202,15,90,23672,23608,-1148,-46,-27,-40,8528,7152,-8998,-21,5,-42
32767,32767,1574,-192,-2,53,23748,23852,-1150,-11,-21,-43,8642,7272,-9024,-17,6,-32
32767,32767,1694,-193,-8,66,23740,24076,-1072,-5,-10,-36,8612,7104,-8962,-51,25,-37
32767,32767,1830,-171,-15,68,23526,24126,-1148,0,-19,-23,8532,6958,-8906,-82,36,-53
32767,32767,1690,-199,-2,80,23568,23960,-1066,-14,-43,-30,8382,6868,-8940,-88,35,-66
32767,32767,1696,-258,8,112,23752,23936,-1108,-2,-60,-42,8428,6828,-8954,-72,17,-71
32767,32767,1590,-249,4,118,23666,23840,-1146,14,-52,-38,8568,6880,-8928,-40,7,-76
32767,32767,1666,-238,1,79,23538,23866,-1192,27,-59,-26,8668,6928,-8802,-32,20,-75
32767,32767,1556,-200,-13,82,23536,23862,-1132,55,-67,-19,8592,6878,-8840,-52,30,-73
32767,32767,1672,-181,-30,90,23514,23962,-1304,50,-58,-15,8394,6768,-9022,-62,27,-74
32767,32767,1686,-174,-38,100,23246,23890,-1206,29,-55,-11,8246,6662,-9024,-50,26,-85
32767,32767,1744,-177,-31,110,23434,23884,-1226,6,-61,-24,8462,6824,-8892,-38,6,-107
32767,32767,1762,-222,-11,107,23566,23718,-1102,-8,-58,-22,8696,7000,-8940,-31,3,-102
32767,32767,1858,-255,-23,92,23550,23662,-1188,7,-48,-10,8766,7048,-9018,-34,35,-82
32767,32767,1774,-260,-42,73,23454,23688,-1286,52,-50,-10,8544,6890,-9028,-62,63,-74
32767,32767,1778,-284,-33,78,23340,23768,-1230,64,-72,-25,8480,6756,-8994,-86,59,-80
32767,32767,1724,-235,-46,76,23348,23832,-1260,64,-79,-33,8624,6664,-8978,-79,45,-84
32767,32767,1840,-206,-40,62,23336,23874,-1186,80,-83,-24,8574,6658,-8956,-61,53,-81
32767,32767,1840,-147,-54,49,23512,23922,-1098,54,-87,-22,8418,6624,-8834,-47,54,-74
32767,32767,1722,-122,-69,38,23638,24018,-1412,62,-70,-26,8400,6600,-8874,-21,36,-51
32767,32767,1706,-127,-78,21,23512,23918,-1386,49,-63,-16,8560,6696,-8964,13,22,-28
32767,32767,1920,-167,-94,24,23554,23768,-1262,44,-79,-46,8718,6748,-9092,32,22,-23
32767,32767,2020,-165,-95,23,23664,24056,-1280,50,-63,-76,8724,6838,-9166,44,45,-27
32767,32767,2270,-120,-81,2,23402,24158,-1202,34,-55,-45,8492,6992,-9162,26,69,-22
32767,32767,2120,-51,-82,-12,23304,24124,-1102,41,-56,-14,8436,6962,-8928,-8,58,-16
32767,32767,2090,-22,-80,-16,23472,24278,-1270,90,-76,-7,8516,6776,-8862,-26,37,-2
32767,32767,1968,-25,-79,-14,23410,24232,-1210,69,-76,-15,8486,6566,-9084,-16,53,2
32767,32767,1922,-26,-75,-22,23478,24030,-1292,26,-83,-41,8342,6472,-9090,-14,59,-9
32767,32767,1904,-16,-67,-19,23616,23934,-1610,38,-78,-47,8402,6482,-9062,-13,36,-14
32767,32767,1908,-32,-77,-27,23500,23778,-1446,22,-80,-30,8540,6546,-9012,-8,26,-13
32767,32767,1960,-72,-71,-19,23490,23806,-1460,44,-72,-31,8502,6608,-8978,-8,43,-7
32767,32767,2004,-41,-64,-10,23296,23854,-1454,73,-67,-20,8368,6628,-8960,-11,49,-4
32767,32767,1952,14,-71,-6,23452,23756,-1344,44,-85,-23,8300,6574,-9060,1,31,3
32767,32767,1940,-26,-58,-10,23850,23858,-1394,80,-68,-41,8496,6560,-9184,16,17,17
32767,32767,1938,-47,-60,-19,23600,24000,-1326,57,-39,-26,8528,6486,-9222,27,39,16
32767,32767,2104,-13,-58,-31,23378,24110,-1258,53,-44,-34,8286,6468,-9054,26,53,3
32767,32767,2110,23,-59,-36,23214,24130,-1164,75,-54,-28,8148,6568,-8936,18,30,-1
32767,32767,2068,-1,-56,-68,23490,23988,-1120,82,-82,-21,8292,6610,-8986,27,6,7
32767,32767,1890,15,-48,-32,23942,24222,-1162,104,-85,-51,8534,6614,-9084,57,-6,27
32767,32767,1916,24,-50,-57,23728,24414,-1146,45,-51,-34,8556,6708,-9164,75,16,41
32767,32767,1616,-8,-77,-68,23474,24314,-1224,19,-43,-2,8390,6822,-9120,55,35,35
32767,32767,1658,-34,-71,-63,23426,24162,-1212,27,-62,-15,8218,6852,-8984,14,29,18
32767,32767,1888,17,-80,-81,23394,24142,-1316,39,-69,-19,8208,6688,-9060,0,9,5
32767,32767,2110,55,-67,-49,23604,24084,-1414,59,-84,2,8464,6754,-9288,20,6,18
32767,32767,2176,42,-38,-56,23880,24224,-1494,56,-68,4,8588,6752,-9224,25,25,33
32767,32767,2176,26,-26,-96,23620,24322,-1404,39,-45,8,8608,6708,-9128,12,38,21
32767,32767,1960,-8,-22,-66,23378,24300,-1204,3,-55,-1,8590,6640,-9058,-8,45,1
32767,32767,1852,-7,-11,-61,23374,24110,-1220,-5,-56,-17,8466,6406,-8980,-6,48,-2
32767,32767,1736,14,-31,-83,23410,23966,-1252,-12,-54,-17,8482,6322,-9014,20,47,-4
32767,32767,1660,19,-39,-71,23356,23926,-1384,32,-51,-3,8486,6268,-9064,51,39,-11
32767,32767,1838,-2,-44,-75,23470,24028,-1442,60,-66,5,8522,6420,-9020,76,37,-19
32767,32767,1854,9,-53,-70,23572,24066,-1522,80,-62,2,8392,6646,-8970,96,42,-9
32767,32767,1754,16,-46,-78,23412,24052,-1526,79,-68,-16,8342,6684,-8856,94,32,-9
32767,32767,1744,7,-76,-70,23640,24170,-1394,52,-70,-16,8336,6802,-8976,88,23,-17
32767,32767,1850,-29,-85,-73,23636,24124,-1366,40,-54,-5,8454,6828,-9220,84,27,-22
32767,32767,2096,-4,-77,-43,23526,24160,-1316,12,-38,-1,8492,6840,-9326,69,49,-20
32767,32767,2230,37,-61,-44,23562,24186,-1284,16,-38,2,8476,6870,-9144,42,63,-13
32767,32767,2304,73,-49,-53,23748,24262,-1044,-4,-40,-7,8438,6800,-8918,9,61,-3
32767,32767,2080,67,-39,-68,23760,24302,-936,-11,-18,-5,8334,6704,-8784,-5,41,3
32767,32767,2032,37,-55,-48,23564,24404,-976,16,-12,11,8340,6564,-8996,28,17,3
32767,32767,2046,-7,-56,-29,23478,24500,-964,33,-23,21,8520,6674,-9306,59,24,3
32767,32767,2180,3,-41,-26,23674,24700,-990,44,-57,32,8584,6806,-9336,48,52,0
32767,32767,2154,17,-25,-32,23854,24612,-1186,33,-59,41,8414,6814,-9172,3,63,-10
32767,32767,1978,75,-16,-42,23876,24514,-1278,8,-70,40,8412,6776,-9056,-21,48,-12
32767,32767,1932,84,-37,-37,23706,24430,-1390,3,-73,23,8478,6656,-9118,-10,45,2
32767,32767,1928,-23,-45,-22,23440,24348,-1490,19,-80,19,8378,6654,-9104,12,54,8
32767,32767,1942,-67,-48,-7,23456,24396,-1432,9,-82,34,8214,6646,-9220,9,59,2
32767,32767,1998,11,-39,-14,23738,24494,-1562,18,-69,54,8384,6478,-9198,-11,34,-17
32767,32767,2084,79,-32,-16,23572,24366,-1494,0,-47,58,8568,6408,-9286,-3,38,-27
32767,32767,2138,-8,-24,-30,23428,24276,-1640,-14,-53,47,8522,6416,-9290,21,59,-25
32767,32767,1926,-92,-22,-27,23746,24266,-1716,-28,-51,39,8506,6512,-9392,55,66,-17
32767,32767,1858,-52,-25,-21,23692,24344,-1656,-28,-32,22,8494,6528,-9208,55,62,-15
32767,32767,1814,51,-18,-19,23618,24394,-1556,-31,-22,23,8430,6560,-9102,22,60,-26
32767,32767,1822,119,-27,-20,23854,24562,-1380,-41,-24,40,8350,6502,-8994,3,62,-29
32767,32767,1936,74,-26,-19,23680,24364,-1290,-69,-13,17,8322,6444,-8990,28,48,-25
32767,32767,1992,19,-38,-10,23476,24228,-1268,-76,-20,-2,8266,6660,-9178,61,23,-13
32767,32767,2020,-37,-45,-1,23498,24072,-1124,-47,-36,14,8190,6990,-9124,53,19,5
32767,32767,2040,-36,-54,6,23756,24132,-1052,12,-39,16,8198,7050,-9078,26,8,15
32767,32767,2154,-14,-48,15,23556,24410,-1078,6,-36,5,8360,7080,-9142,-6,-10,14
32767,32767,2378,-3,-41,8,23428,24558,-1202,-6,-37,16,8564,6930,-9214,-26,-7,20
32767,32767,2584,-26,-24,11,23512,24520,-1188,-29,-47,19,8722,6834,-9362,-42,14,29
32767,32767,2656,-44,-5,9,23612,24434,-1356,-48,-48,17,8698,6896,-9380,-55,45,49
32767,32767,2612,-44,13,7,23608,24264,-1378,-70,-46,12,8334,6926,-9362,-64,55,73
32767,32767,2360,-12,14,5,23922,24464,-1480,-47,-36,20,8318,6788,-9300,-66,29,89
32767,32767,2070,15,19,4,23876,24714,-1486,-58,-2,48,8402,6542,-9150,-54,22,79
32767,32767,2042,23,25,-20,23584,24802,-1428,-112,-3,26,8382,6476,-9212,-55,27,51
32767,32767,1910,-45,25,-15,23692,24786,-1598,-126,-5,14,8362,6510,-9274,-68,31,37
32767,32767,1764,-58,11,-16,23544,24504,-1418,-181,-5,9,8474,6484,-9282,-56,31,47
32767,32767,1678,-53,16,-5,23434,24042,-1306,-196,-21,-12,8614,6526,-9356,-35,40,55
32767,32767,1560,-35,24,26,23516,23830,-1296,-172,-27,-32,8524,6624,-9320,-27,59,43
32767,32767,1526,13,10,43,23528,23784,-1210,-116,-28,-15,8412,6654,-9178,-32,66,25
32767,32767,1574,9,7,43,23608,23964,-1282,-49,-22,6,8434,6694,-9198,-35,50,17
32767,32767,1640,-72,0,35,23492,24636,-1308,-9,-14,34,8560,6816,-9298,-27,34,27
32767,32767,1804,-120,-35,28,23482,24946,-1528,-40,-5,45,8452,6838,-9228,-6,37,37
32767,32767,2058,-139,-43,27,23432,24866,-1366,-115,-30,15,8334,6706,-9196,1,39,29
32767,32767,2184,-71,-41,33,23906,24772,-1546,-156,-24,-10,8252,6800,-9146,-11,26,17
32767,32767,2124,-3,-34,37,23970,24552,-1456,-190,-19,4,8266,6860,-9130,-17,13,19
32767,32767,2180,-14,-28,30,23452,23892,-1404,-199,-21,-27,8362,6858,-9062,-24,7,25
32767,32767,2232,-73,-29,32,23544,23772,-1376,-161,-33,-23,8346,6870,-9162,-33,10,21
32767,32767,2258,-119,-16,29,23590,23808,-1362,-108,-39,-32,8426,6822,-9130,-45,6,10
32767,32767,2204,-114,6,38,23462,24108,-1334,-44,-36,-20,8398,6824,-9182,-51,-3,3
32767,32767,2112,-61,18,45,23248,24298,-1320,-50,-33,7,8464,6764,-9200,-64,0,-6
32767,32767,1878,-6,45,82,23210,24344,-1356,-73,-29,24,8474,6888,-9176,-70,1,-5
32767,32767,1726,-46,30,108,23306,24240,-1370,-84,-39,20,8472,6846,-9270,-73,-9,2
32767,32767,1710,-194,17,96,23662,24026,-1402,-107,-38,-1,8612,6814,-9288,-69,-5,-1
32767,32767,1580,-260,-1,78,23748,23974,-1560,-101,-28,-1,8610,6872,-9342,-76,15,-13
32767,32767,1844,-202,-12,64,23652,24066,-1498,-63,-31,2,8588,6882,-9352,-91,24,-21
32767,32767,1974,-155,-33,89,23484,24086,-1504,-54,-37,-16,8458,6762,-9292,-105,31,-17
32767,32767,2076,-159,-25,54,23656,24252,-1498,-27,-43,-17,8200,6512,-9058,-113,28,-12
32767,32767,2016,-141,-11,53,23734,24192,-1642,-8,-39,-7,8144,6354,-8884,-86,-1,-14
32767,32767,1768,-96,-13,81,23566,24274,-1472,-3,-37,-21,8222,6368,-9024,-40,-32,-18
32767,32767,1756,-106,-4,107,23564,24402,-1494,0,-30,-23,8394,6510,-9240,-6,-35,-16
32767,32767,1774,-167,-2,138,23638,24474,-1422,-78,-16,-8,8550,6782,-9424,17,-25,-18
32767,32767,1880,-238,6,179,23506,24304,-1422,-111,-13,-13,8648,7002,-9426,16,0,-22
32767,32767,1826,-231,11,107,23478,24136,-1204,-132,-28,-23,8552,7208,-9310,-25,21,-26
32767,32767,1976,-224,39,93,23666,23974,-1124,-135,-37,-32,8590,7238,-9204,-74,23,-13
32767,32767,1858,-197,-18,51,23566,23874,-1140,-114,-30,-34,8570,6758,-9182,-119,30,-13
32767,32767,1812,-239,-24,50,23498,23936,-1024,-81,-28,-26,8472,6474,-9208,-136,35,-32
32767,32767,1802,-235,-25,57,23712,23908,-1162,-24,-39,-14,8440,6366,-9192,-125,33,-40
32767,32767,1782,-185,-28,42,23882,23972,-1142,19,-40,-28,8364,6368,-9186,-87,34,-33
32767,32767,1828,-166,-29,38,23590,24348,-1098,12,-31,-40,8286,6390,-9000,-65,30,-38
32767,32767,1894,-177,-31,36,23466,24444,-1188,-14,-36,-25,8238,6282,-9078,-37,10,-46
32767,32767,1934,-196,-17,47,23572,24358,-1252,-54,-45,-26,8382,6288,-9212,-14,4,-51
32767,32767,1990,-194,-9,64,23520,24120,-1214,-70,-56,-36,8492,6428,-9196,-6,11,-49
32767,32767,1810,-161,15,86,23560,23886,-1252,-66,-64,-35,8506,6572,-9220,-3,14,-44
32767,32767,1696,-110,40,102,23532,23748,-1308,-50,-60,-35,8572,6772,-9282,-1,11,-49
32767,32767,1616,-116,44,106,23654,23680,-1310,-20,-62,-34,8676,6850,-9338,-10,25,-44
32767,32767,1698,-175,8,59,23668,23772,-1346,21,-49,-27,8642,6694,-9374,-27,53,-34
32767,32767,1696,-158,4,64,23386,23908,-1508,69,-51,-27,8470,6588,-9366,-44,77,-31
32767,32767,1664,-86,-9,64,23356,24040,-1472,104,-77,-32,8302,6358,-9274,-55,80,-39
32767,32767,1538,-31,-18,65,23586,24208,-1356,101,-95,-27,8412,6288,-9182,-44,61,-46
32767,32767,1450,-14,-16,78,23900,24452,-1226,72,-77,-18,8622,6280,-9154,-32,50,-48
32767,32767,1586,-54,-21,57,23698,24542,-1324,41,-33,-6,8562,6312,-9242,-8,62,-43
32767,32767,1680,-136,-47,56,23318,24486,-1332,-8,-24,4,8492,6424,-9322,11,76,-30
32767,32767,1944,-210,-59,53,23348,24260,-1356,-30,-42,-7,8284,6516,-9278,11,81,-29
32767,32767,1954,-266,-68,52,23722,23902,-1400,-8,-62,-23,8168,6606,-9212,4,64,-42
32767,32767,1910,-230,-66,41,23496,23806,-1240,27,-68,-26,8312,6582,-9128,-9,43,-50
32767,32767,1910,-206,-52,43,23496,23830,-1268,69,-84,-25,8494,6592,-9278,-9,40,-36
32767,32767,2022,-159,-43,44,23546,24060,-1274,86,-87,-14,8410,6704,-9206,-4,55,-9
32767,32767,1960,-97,-42,23,23532,24188,-1340,97,-76,-4,8340,6614,-9206,-8,53,11
32767,32767,2034,-78,-49,12,23532,24202,-1420,107,-87,-6,8384,6504,-9206,-24,32,2
32767,32767,2064,-108,-52,5,23436,24278,-1358,109,-95,-15,8524,6426,-9274,-40,22,-17
32767,32767,2160,-138,-51,1,23528,24218,-1388,102,-108,-28,8550,6434,-9410,-39,36,-19
32767,32767,2154,-174,-46,-9,23600,24208,-1390,119,-104,-32,8532,6438,-9418,-42,56,-3
32767,32767,2042,-162,-39,-14,23600,24300,-1484,123,-92,-20,8442,6394,-9392,-46,58,12
32767,32767,1916,-122,-36,-7,23610,24266,-1584,135,-67,-14,8358,6172,-9216,-47,45,9
32767,32767,1806,-73,-39,-7,23406,24160,-1586,95,-63,-39,8358,6140,-9238,-17,31,7
32767,32767,1642,-46,-43,0,23286,24022,-1592,88,-78,-81,8526,6170,-9390,40,17,16
32767,32767,1700,-43,-50,-2,23526,24088,-1574,107,-83,-80,8598,6312,-9570,91,27,21
32767,32767,1828,-70,-49,-11,23404,24020,-1440,113,-74,-38,8614,6418,-9474,95,53,16
32767,32767,1928,-50,-51,-27,23240,24044,-1332,137,-81,-50,8230,6510,-9236,51,67,15
32767,32767,1910,19,-59,-43,23688,24666,-1390,144,-78,-48,8030,6568,-9152,22,42,18
32767,32767,1720,14,-71,-38,23574,24840,-1342,133,-60,18,8220,6578,-9182,28,-1,27
32767,32767,1854,-44,-74,-24,23458,24592,-1212,110,-75,3,8732,6628,-9578,44,0,36
32767,32767,1992,-98,-71,-17,23664,24552,-1116,102,-106,-50,8796,6744,-9684,14,45,35
32767,32767,2056,-90,-70,-21,23650,24430,-1228,96,-113,-30,8622,6728,-9660,-34,82,29
32767,32767,2064,-59,-63,-23,23622,24236,-1298,125,-117,-2,8398,6558,-9464,-66,85,24
32767,32767,2074,-19,-59,-35,23776,24454,-1462,172,-135,-8,8334,6298,-9212,-74,69,20
32767,32767,2014,24,-53,-33,23800,24694,-1428,168,-123,-4,8230,6078,-9192,-41,41,23
32767,32767,1940,62,-60,-31,23834,24896,-1454,138,-106,12,8396,6078,-9474,24,21,33
32767,32767,1924,32,-52,-27,23674,24818,-1468,52,-65,1,8540,6232,-9592,88,27,47
32767,32767,2072,37,-51,-37,23362,24572,-1590,39,-72,-13,8478,6452,-9640,120,41,49
32767,32767,2102,65,-56,-59,23216,24336,-1650,59,-99,-28,8350,6670,-9456,116,60,42
32767,32767,1998,94,-57,-57,23676,24264,-1640,137,-125,-18,8142,6656,-9410,85,62,33
32767,32767,1926,94,-51,-76,23876,24390,-1734,176,-112,-3,8286,6590,-9258,63,39,21
32767,32767,1902,91,-60,-89,23768,24640,-1628,184,-100,4,8592,6570,-9508,67,26,23
32767,32767,1720,38,-98,-164,23766,24878,-1484,143,-83,5,8732,6488,-9666,68,55,27
32767,32767,1642,-36,-122,-167,23654,24970,-1438,104,-60,7,8508,6402,-9580,52,103,19
32767,32562,1802,10,-95,-156,23414,24790,-1368,72,-64,-1,8166,6316,-9392,25,108,-1
32767,32767,1882,155,-119,-151,23584,24624,-1180,54,-85,-19,8108,6226,-9338,41,68,-16
32767,32767,1738,175,-119,-167,23872,24552,-1144,61,-78,-17,8370,6324,-9350,89,39,-17
32767,32767,2142,127,-89,-125,23822,24684,-1108,54,-48,13,8334,6474,-9512,118,50,-10
32767,32767,2274,84,-90,-47,23802,24838,-1048,62,-46,15,8270,6640,-9654,151,42,5
32767,32767,2198,19,-86,-46,23894,25074,-1088,57,-52,7,8438,6824,-9790,171,33,21
32767,32767,2122,13,-67,-55,23864,25102,-1040,26,-41,10,8584,6918,-9702,134,57,19
32767,32767,2238,128,-43,-47,23732,25018,-1184,6,-37,21,8530,6840,-9484,81,75,-2
32767,32767,2340,319,-21,-56,23726,24982,-1182,-1,-52,29,8390,6770,-9450,64,65,-5
32767,32767,2348,274,-8,-58,23880,24914,-1180,2,-57,35,8380,6726,-9646,76,54,14
32767,32767,2188,136,-14,-58,23914,24922,-1204,10,-55,38,8368,6704,-9546,64,59,28
32767,32767,1874,41,-25,-55,23792,24986,-1498,2,-55,29,8330,6746,-9560,35,60,15
32767,32767,1730,39,-40,-55,23768,25062,-1432,-9,-65,30,8302,6686,-9712,24,52,3
32767,32767,1780,35,-51,-37,23810,24994,-1488,-33,-63,33,8452,6602,-9922,49,57,5
32767,32767,1976,25,-57,-36,23696,24924,-1580,-51,-48,41,8592,6528,-9968,64,79,0
32767,32767,2062,24,-48,-46,23594,24842,-1664,-43,-45,43,8562,6440,-9916,49,111,-16
32767,32767,2020,100,-37,-58,23582,24868,-1686,-51,-45,39,8454,6264,-9822,44,121,-26
32767,32767,1876,128,-44,-63,23942,24918,-1712,-45,-35,53,8266,6234,-9610,72,116,-21
32767,32767,1746,125,-54,-75,23970,24870,-1620,-72,-20,51,8200,6330,-9534,129,90,-4
32767,32767,1752,114,-65,-69,23928,25096,-1590,-89,2,44,8154,6452,-9640,164,63,0
32767,32767,1810,97,-80,-57,23754,24940,-1688,-139,16,48,8316,6580,-9830,191,53,-5
32767,32767,2058,53,-82,-56,23678,24848,-1330,-99,-1,40,8386,6798,-9794,190,65,-11
32767,32767,2178,31,-76,-55,23570,24662,-1224,-119,-13,8,8206,7072,-9632,137,86,-14
32767,32767,2226,62,-65,-48,23806,24588,-1232,-90,-18,22,8028,7080,-9462,69,72,-12
32767,32767,2220,76,-64,-28,23990,24508,-1220,-40,-31,54,8120,6942,-9430,30,37,-4
32767,32767,2282,7,-71,-13,24274,24742,-1284,2,-13,53,8300,6918,-9674,18,23,14
32767,32767,2366,-53,-58,-7,23602,24904,-1208,-42,-21,18,8374,6928,-9788,-8,39,26
32767,32767,2326,-48,-52,-18,23542,24938,-1150,-83,-31,-15,8278,6928,-9750,-36,39,25
32767,32767,2446,-32,-41,-14,23728,24844,-1194,-84,-43,12,8208,6840,-9786,-50,24,21
32767,32767,2552,-18,-25,0,23730,24616,-1222,-137,-28,11,8294,6838,-9946,-42,13,30
32767,32767,2600,-28,-10,5,23890,24756,-1352,-93,-23,15,8392,6872,-9810,-45,23,47
32767,32767,2446,-51,-8,10,23816,24682,-1318,-117,-17,16,8388,6742,-9832,-53,30,58
32767,32767,2210,-55,-4,-2,23876,24784,-1356,-105,-18,2,8414,6652,-9832,-54,22,57
32767,32767,2192,-94,5,-1,23912,25040,-1308,-110,-14,5,8354,6602,-9870,-53,22,50
32767,32767,2058,-114,3,-10,23492,25048,-1228,-166,-9,-3,8264,6604,-9850,-55,36,26
32767,32767,1952,-94,7,7,23482,24918,-1390,-215,-21,-11,8246,6604,-9866,-62,30,9
32767,32767,1860,-95,5,20,23680,24714,-1394,-242,-30,-7,8418,6552,-9774,-74,33,1
32767,32767,1814,-115,14,27,23940,24554,-1452,-230,-19,-7,8556,6582,-9838,-82,46,-1
32767,32767,1926,-106,40,68,24142,24612,-1518,-196,10,9,8458,6530,-9736,-79,56,3
32767,32767,1686,-82,11,49,23678,24582,-1458,-176,28,12,8348,6622,-9804,-63,51,1
32767,32767,1660,-132,22,109,23408,24600,-1410,-160,24,-16,8344,6672,-9824,-43,45,-1
32767,32767,1750,-172,-29,65,23682,24766,-1444,-144,-5,-14,8436,6768,-9960,-36,44,-7
32767,32767,2044,-214,-20,78,23812,24700,-1360,-182,4,-2,8440,6750,-9892,-43,57,-1
32767,32767,2172,-173,-58,68,23834,24636,-1400,-205,2,-5,8330,6594,-9680,-68,57,-9
32767,32767,2136,-138,-8,76,23984,24656,-1406,-218,12,-6,8312,6540,-9652,-63,35,-8
32767,32767,2312,-47,-11,84,23814,24544,-1200,-223,34,-7,8322,6686,-9780,-23,8,11
32767,32767,2058,-54,16,117,23398,24494,-1314,-227,27,-10,8466,6882,-9866,13,8,39
32767,32767,2406,-122,-37,12,23552,24318,-1222,-190,-12,-21,8250,6838,-9822,-16,24,25
32767,32767,2188,-198,-43,32,23630,24366,-1328,-170,-23,-19,8118,6748,-9634,-72,21,-11
32767,32767,2348,-134,-34,31,23736,24456,-1266,-106,-24,3,8182,6560,-9606,-106,-1,-36
32767,32767,2236,-85,-24,58,23834,24696,-1464,-97,-32,6,8376,6672,-9680,-93,-26,-35
32767,32767,2232,-119,14,114,23712,24886,-1478,-143,-5,5,8424,6728,-9718,-89,-16,-5
32767,32767,1968,-127,-9,77,23572,24686,-1548,-205,4,9,8320,6730,-9814,-107,2,-2
32767,32767,1966,-180,-1,75,23604,24352,-1470,-252,11,-3,8168,6762,-9822,-127,-6,-19
32767,32767,2090,-185,-16,80,23646,23968,-1462,-243,4,-13,8260,6664,-9780,-148,-25,-35
32767,32767,2194,-211,-28,62,23558,24044,-1416,-132,13,-9,8430,6540,-9750,-153,-25,-47
32767,32767,2402,-273,-16,61,23438,24254,-1374,-108,7,6,8414,6434,-9732,-163,-14,-58
32767,32767,2236,-286,-6,86,23344,24406,-1418,-117,-4,16,8262,6392,-9576,-163,-6,-58
32767,32767,1884,-280,18,108,23488,24426,-1306,-142,-13,9,8174,6512,-9668,-139,-25,-41
32767,32767,1650,-261,28,115,23712,24342,-1360,-137,-25,-9,8336,6606,-9836,-98,-48,-15
32767,32767,1756,-245,-9,75,23682,24246,-1334,-150,-26,-30,8552,6510,-9856,-88,-31,-21
32767,32767,1844,-269,-20,85,23620,24084,-1274,-122,-30,-35,8536,6470,-9850,-118,-5,-43
32767,32767,2098,-273,-14,100,23614,24060,-1440,-83,-32,-27,8422,6422,-9690,-141,1,-62
32767,32767,2120,-241,-19,95,23484,24158,-1348,-43,-40,-6,8320,6480,-9556,-139,-7,-64
32767,32767,2020,-258,-2,108,23610,24130,-1424,2,-57,-10,8280,6570,-9602,-132,-23,-46
32767,32767,1924,-212,-15,104,23762,24162,-1434,31,-63,-29,8288,6572,-9614,-132,-33,-20
32767,32767,1946,-251,-33,94,23798,24156,-1456,66,-69,-42,8288,6380,-9686,-130,-31,-18
32767,32767,2160,-326,-44,98,23690,24228,-1360,81,-71,-49,8414,6336,-9776,-129,-37,-49
32767,32767,2216,-320,-38,114,23568,24384,-1290,60,-65,-31,8404,6384,-9754,-122,-20,-56
32767,32767,2322,-270,-27,90,23552,24502,-1312,47,-60,-7,8328,6368,-9626,-109,-8,-55
32767,32767,2264,-196,-6,95,23508,24264,-1332,12,-59,-13,8240,6412,-9596,-98,-13,-45
32767,32767,2124,-172,10,77,23508,24054,-1310,25,-74,-38,8336,6244,-9502,-99,-34,-37
32767,32767,2064,-190,9,67,23732,23952,-1294,57,-81,-44,8444,6270,-9522,-91,-35,-47
32767,32767,1962,-256,-1,71,23956,24046,-1258,97,-74,-34,8554,6256,-9552,-90,-17,-56
32767,32767,1792,-302,-15,77,23826,24388,-1216,130,-57,-31,8458,6274,-9610,-99,2,-54
32767,32767,1800,-317,-9,88,23498,24586,-1322,145,-57,-19,8328,6204,-9620,-112,15,-54
32767,32767,1716,-232,-4,99,23400,24680,-1352,132,-72,-20,8334,6232,-9572,-109,4,-64
32767,32767,1810,-161,-23,87,23724,24628,-1284,91,-81,-26,8504,6214,-9470,-96,-7,-78
32767,32767,1874,-212,-25,82,23752,24358,-1364,52,-74,-34,8544,6164,-9514,-101,9,-83
32767,32767,2104,-252,-41,72,23474,24186,-1434,63,-79,-43,8330,5978,-9576,-118,36,-84
32767,32767,2214,-236,-33,76,23350,24078,-1482,95,-103,-50,8164,5918,-9608,-106,36,-76
32767,32767,2090,-209,-31,88,23538,24216,-1342,104,-109,-45,8266,5936,-9680,-58,10,-61
32767,32767,2084,-237,-24,75,23630,24348,-1298,86,-88,-32,8418,6100,-9554,0,-1,-57
32767,32767,1984,-213,-21,57,23700,24218,-1316,49,-86,-42,8526,6160,-9574,21,5,-61
32767,32767,2004,-160,-25,50,23566,24154,-1230,44,-78,-68,8550,6118,-9608,12,17,-65
32767,32767,2124,-144,-22,41,23512,24098,-1360,43,-84,-74,8526,6072,-9698,7,37,-62
32767,32767,2152,-156,-29,37,23826,24308,-1238,84,-95,-75,8448,6086,-9736,20,52,-47
32767,32767,2050,-173,-19,28,23740,24572,-1440,92,-65,-78,8384,6064,-9814,47,54,-25
32767,32720,1956,-127,-17,11,23614,24780,-1342,25,-50,-64,8526,6048,-9630,71,49,-13
32767,32548,1938,-42,-21,-10,23602,24670,-1296,-8,-52,-70,8484,5966,-9486,70,49,-26
32767,32767,2008,64,-28,-34,23530,24566,-1296,-52,-56,-104,8360,5990,-9424,50,52,-47
32767,32767,2110,57,-39,-27,23500,24318,-1276,-40,-69,-99,8242,5966,-9540,28,51,-42
32767,32767,2156,-33,-42,-17,23652,24208,-1438,-10,-79,-79,8336,6040,-9688,55,47,-20
32767,32767,2080,-90,-42,-12,23824,24244,-1214,24,-77,-70,8508,6120,-9804,78,55,-7
32767,32620,1924,-56,-39,-19,23714,24542,-1246,21,-29,-45,8506,6130,-9696,63,71,-12
32767,32550,2024,38,-25,-26,23246,24452,-1370,18,-30,-7,8336,6154,-9616,34,79,-19
32767,32767,2076,113,-30,-42,23276,24276,-1168,37,-79,-19,8214,6034,-9528,29,73,-9
32767,32767,2016,85,-48,-44,23640,24270,-1294,44,-95,-42,8220,6038,-9592,52,59,4
32767,32767,2064,24,-65,-58,23480,24186,-1536,70,-87,-20,8356,5956,-9738,71,44,8
32767,32767,2084,19,-65,-68,23310,24132,-1708,104,-95,-22,8468,5966,-9800,63,57,5
32767,32767,2136,57,-56,-64,23840,24306,-1688,96,-92,-30,8224,6056,-9806,50,72,6
32767,32767,2076,84,-46,-60,23616,24400,-1562,50,-40,-1,8312,6056,-9818,66,57,13
32767,32767,2160,102,-31,-63,23414,24184,-1336,19,-44,-19,8432,6016,-9750,79,49,13
32767,32767,2274,99,-36,-65,23426,24244,-1412,27,-44,-34,8382,5896,-9572,53,67,-4
32767,32767,2130,53,-49,-81,23294,24156,-1360,59,-53,-19,8178,5796,-9496,17,69,-29
32767,32767,2078,4,-45,-91,23494,24282,-1338,104,-68,-13,8106,5732,-9512,25,42,-29
32767,32767,1936,-14,-54,-91,23856,24590,-1308,97,-45,4,8246,5896,-9626,75,21,1
32767,32767,2034,22,-47,-65,23934,24798,-1198,64,-15,29,8314,5994,-9738,110,19,20
32767,32767,2096,64,-47,-58,23874,24892,-1068,33,3,21,8262,6132,-9616,93,30,4
32767,32767,2064,58,-46,-90,23610,24796,-1010,-21,1,14,8292,6172,-9600,65,25,-17
32767,32767,2126,26,-70,-70,24000,24418,-1866,-286,31,56,8292,6212,-9564,39,13,-26
32767,32767,1886,-75,-78,-104,23808,23856,-1696,-232,22,36,8312,6210,-9732,30,12,-18
32767,32767,2070,-132,-105,-81,23682,23760,-1472,-133,19,12,8402,6118,-9784,19,16,-7
32767,32767,2042,-163,-92,-111,23440,23828,-1464,-48,3,23,8418,6092,-9838,12,29,-6
32767,32767,2284,-45,-68,-99,23450,24176,-1174,5,-21,31,8306,6070,-9774,-3,44,-15
32767,32767,2136,45,-72,-83,23934,24746,-1200,44,-18,48,8282,5964,-9586,-22,36,-15
32767,32767,2048,-1,-54,-79,23534,24952,-1176,-2,-13,67,8426,5912,-9556,-9,21,10
32767,32767,1946,-46,-78,-40,23538,24728,-1132,-65,-20,55,8358,5758,-9716,21,26,15
32767,32767,2308,-65,-68,-21,22982,23788,-1114,-197,-27,5,8326,5820,-9804,57,26,2
32767,32767,2422,-27,-58,-43,23280,23566,-1280,-138,-68,-38,8310,5954,-9902,73,23,-10
32767,32767,2464,13,-33,-41,23672,23686,-1154,-80,-64,-24,8390,6046,-9896,74,34,-20
32767,32767,2372,52,-12,-33,23672,23832,-1222,-6,-51,1,8458,5956,-9662,60,43,-27
32767,32767,2160,30,4,-46,23498,24370,-1206,42,-51,3,8504,5784,-9580,43,51,-29
32767,32767,1828,16,1,-63,23542,24714,-1296,29,-47,5,8322,5640,-9546,37,49,-33
32767,32767,1734,64,-28,-51,23570,24936,-1358,-7,-37,9,8274,5754,-9688,60,35,-29
32767,32767,1820,45,-46,-36,23480,24922,-1520,-121,-20,7,8244,5874,-9840,83,46,-24
32767,32767,1870,41,-48,-18,23416,24634,-1646,-176,-15,-6,8224,5974,-9890,85,58,-35
32767,32767,2112,80,-48,-25,23588,24374,-1648,-200,-20,-18,8214,6032,-9768,59,59,-44
32767,32767,2224,67,-28,-37,23770,24194,-1544,-180,-18,-19,8086,6036,-9586,24,51,-43
32767,32767,2114,55,-23,-36,23854,24160,-1600,-140,-11,-13,8118,5946,-9420,18,26,-31
32767,32767,1968,34,-33,-28,23760,24284,-1518,-100,-5,-4,8322,6024,-9520,45,5,-3
32767,32767,2122,-26,-38,-4,23594,24416,-1502,-70,-10,3,8438,6122,-9610,80,1,33
32767,32767,2478,-11,-43,16,23542,24434,-1484,-47,-15,3,8314,6302,-9822,59,23,41
32767,32767,2850,32,-26,27,23498,24454,-1372,-45,-33,-9,8228,6382,-9752,-11,38,13
32767,32767,2770,65,0,35,23808,24490,-1412,-57,-35,-11,8218,6296,-9658,-54,28,0
32767,32767,2514,-17,1,31,23808,24340,-1424,-68,-20,-12,8384,6166,-9630,-69,22,1
32767,32767,2456,-215,20,39,23520,24302,-1350,-83,-14,-17,8496,5950,-9712,-95,30,-6
32767,32767,2122,-319,18,65,23482,24134,-1294,-61,-27,-13,8488,5902,-9848,-124,47,-9
32767,32767,2120,-387,11,92,23540,24120,-1208,-19,-51,-22,8296,5852,-9980,-138,63,-5
32767,32767,1600,-567,4,131,23548,24154,-1156,3,-56,-35,8452,6050,-9914,-126,58,-4
32767,32767,1560,-584,2,135,23714,24266,-1252,33,-64,-21,8680,6178,-10124,-91,68,7
32767,32146,1640,-428,-38,96,23848,24430,-1308,29,-55,-28,8652,6030,-10136,-87,105,9
32767,32640,1702,-263,-53,75,23632,24510,-1264,14,-46,-39,8386,5760,-9924,-101,130,10
32767,32212,1798,-160,-79,30,23524,24412,-1292,-1,-56,-40,8116,5400,-9710,-94,113,4
32767,32767,2182,-76,-97,48,23504,24350,-1250,-5,-63,-31,8032,5394,-9612,-40,75,8
32767,32767,2396,-139,-74,77,23592,24348,-1264,0,-71,-19,8108,5536,-9692,37,50,35
32767,32767,2412,-242,-91,33,23646,24334,-1356,8,-77,-14,8280,5826,-9772,81,43,46
32767,32767,2296,-257,-55,65,23664,24194,-1338,13,-79,-18,8376,6156,-9832,71,42,44
32767,32700,2416,-136,-51,74,23858,24228,-1338,28,-72,-35,8490,6290,-9722,26,50,32
32767,32767,2294,-47,-24,76,23720,24362,-1378,23,-49,-32,8248,6376,-9640,-38,59,13
32767,32767,2414,-25,-4,106,23550,24536,-1422,1,-34,-13,8156,6402,-9732,-79,42,11
32767,32767,2370,-59,16,163,23484,24532,-1394,0,-38,-3,8304,6192,-9874,-109,35,17
32767,32767,2248,-186,-26,102,23486,24518,-1434,-18,-50,-21,8340,6128,-10052,-136,44,16
32767,32767,2308,-308,-27,139,23520,24376,-1384,-17,-62,-33,8348,5970,-10042,-153,59,6
32767,32110,2348,-298,-40,72,23568,24310,-1406,2,-75,-31,8224,5676,-9880,-148,60,-2
32767,31738,2450,-201,-41,4,23690,24286,-1456,19,-78,-29,8050,5442,-9718,-137,52,-13
32767,31964,2436,-93,-31,26,23640,24338,-1402,40,-68,-30,7974,5242,-9628,-113,27,-13
32767,32714,2328,-33,-18,26,23502,24430,-1370,53,-65,-35,7978,5308,-9648,8,-21,13
32767,32767,2112,-85,-13,38,23532,24444,-1290,54,-82,-33,8112,5608,-9808,86,-43,13
32767,32767,2104,-138,-16,36,23636,24482,-1326,51,-82,-32,8186,5930,-9830,100,-49,-5
32767,32767,2192,-144,-15,38,23662,24470,-1298,55,-79,-29,8336,6214,-9948,66,-54,-26
32767,32767,2264,-145,2,46,23588,24436,-1354,45,-71,-28,8428,6368,-9890,10,-35,-44
32767,32767,2280,-128,7,55,23568,24446,-1344,25,-75,-40,8448,6296,-9954,-55,-15,-53
32767,32767,2156,-165,9,68,23588,24478,-1496,-1,-63,-41,8506,6142,-9984,-116,10,-56
32767,32767,2044,-247,15,80,23470,24280,-1312,-16,-68,-40,8466,5976,-9984,-155,26,-56
32767,32767,1884,-218,6,73,23568,24220,-1426,-10,-70,-55,8504,5902,-10020,-161,38,-54
32767,32767,1832,-205,-6,65,23596,24220,-1538,10,-66,-50,8370,5770,-10080,-142,46,-44
32767,32767,1962,-190,-17,59,23530,24196,-1528,26,-67,-47,8250,5574,-10000,-109,55,-44
32767,32767,2014,-171,-28,53,23636,24202,-1470,34,-81,-69,8216,5382,-9958,-66,51,-46
32767,32767,2042,-139,-29,50,23608,24406,-1426,60,-74,-65,8318,5348,-9948,-19,41,-47
32767,32722,2214,-107,-16,48,23528,24404,-1440,58,-79,-43,8300,5500,-9902,18,33,-47
32767,32767,2016,-71,-17,46,23572,24398,-1440,69,-87,-50,8286,5672,-9810,51,27,-39
32767,32767,2048,-119,-27,39,23688,24498,-1436,73,-96,-73,8310,5832,-9886,75,17,-26
32767,32767,2214,-161,-28,38,23558,24492,-1456,75,-82,-51,8410,5992,-10008,62,22,-22
32767,32628,2166,-124,-35,37,23542,24256,-1412,77,-88,-51,8386,5966,-10000,32,32,-28
32767,32418,2318,-73,-29,30,23688,24328,-1312,83,-99,-81,8348,5984,-9892,-5,45,-29
32767,32658,2382,-30,-22,19,23592,24424,-1458,103,-83,-63,8278,5836,-9728,-28,46,-28
32767,32767,2226,-9,-14,13,23612,24424,-1460,110,-93,-40,8176,5782,-9798,-10,32,-17
32767,32767,2198,-53,-12,12,23662,24460,-1406,123,-94,-46,8334,5738,-9958,15,15,-7
32767,32767,2184,-97,-21,11,23830,24718,-1414,76,-84,-54,8426,5746,-9946,18,14,-8
32767,32767,2188,-84,-25,13,23622,24694,-1332,41,-71,-46,8374,5698,-9866,-8,34,-21
32767,32767,2388,-29,-18,7,23570,24354,-1332,18,-79,-38,8244,5652,-9894,-22,33,-27
32767,32767,2442,-6,-8,7,23808,24340,-1366,54,-82,-23,8284,5686,-9904,3,28,-13
32767,32767,2266,-26,-9,7,23714,24430,-1318,65,-67,-9,8264,5654,-9894,30,22,2
32767,32767,2124,-55,3,1,23704,24622,-1334,75,-70,-23,8290,5728,-9794,33,18,1
32767,32726,1998,-14,-3,-2,23582,24706,-1390,44,-66,-24,8186,5724,-9826,15,9,-13
32767,32767,1880,7,-14,2,23608,24610,-1314,16,-70,-13,8306,5734,-9868,-8,1,-27
32767,32767,1890,-9,-23,9,23798,24440,-1492,14,-74,-13,8378,5674,-9992,-16,7,-24
32767,32767,2190,-74,-31,19,23884,24484,-1436,-7,-54,-2,8464,5778,-10088,-20,28,-14
32767,32767,2258,-77,-30,15,23804,24478,-1288,-6,-39,10,8328,5740,-10088,-41,46,-10
32767,32686,2226,-27,-23,11,23696,24516,-1312,-2,-39,0,8196,5668,-10028,-52,41,-10
32767,32767,2218,17,-18,-4,23602,24558,-1178,-26,-31,-4,8176,5476,-10010,-44,35,-4
32767,32767,2040,11,-16,-19,23584,24462,-1304,-1,-40,10,8180,5454,-9960,-12,19,5
32767,32767,1926,10,-17,-23,23750,24590,-1272,3,-50,10,8346,5434,-9982,27,13,14
32767,32767,2026,-1,-15,-16,23878,24774,-1212,-16,-40,18,8332,5442,-10038,53,18,20
32767,32767,2128,27,-14,-21,23700,24822,-1266,-54,-20,24,8240,5564,-10004,65,28,24
32767,32767,2180,79,-5,-20,23474,24636,-1314,-72,-23,19,8078,5722,-9988,70,24,24
32767,32767,2224,98,-1,-27,23462,24428,-1292,-68,-52,7,8148,5886,-9882,66,2,19
32767,32767,2144,56,-9,-35,23700,24244,-1268,-51,-62,2,8356,5948,-9834,26,-5,12
32767,32767,2080,-7,-17,-34,23842,24396,-1396,0,-55,13,8384,5792,-9868,-13,17,4
32767,32767,2006,-48,-21,-37,23736,24560,-1470,19,-45,20,8318,5658,-9920,-36,26,-2
32767,32767,1990,-63,-28,-35,23704,24738,-1502,25,-38,24,8298,5584,-9906,-42,29,-4
32767,32767,2050,-46,-26,-25,23740,24802,-1390,-1,-31,25,8306,5528,-9900,-27,23,-8
32767,32767,2056,-14,-18,-36,23782,24768,-1480,-20,-25,20,8416,5460,-9894,1,12,-8
32767,32767,1950,-9,-20,-50,23650,24662,-1390,-35,-17,24,8440,5428,-9996,24,18,-11
32767,32767,2018,-37,-37,-45,23534,24608,-1448,-50,-27,29,8382,5416,-10010,39,31,-15
32767,32767,2014,-26,-29,-59,23746,24670,-1442,-24,-35,35,8168,5480,-10042,67,28,-9
32767,32767,2074,30,-44,-66,23766,24680,-1418,-31,-32,39,8284,5592,-9982,101,9,0
32767,32767,2048,16,-29,-75,23632,24620,-1448,-31,-31,37,8342,5708,-10012,107,21,8
32767,32767,2130,23,-36,-73,23800,24580,-1442,-37,-34,32,8334,5750,-10014,98,33,4
32767,32767,2080,44,-27,-72,23850,24580,-1484,-42,-27,32,8256,5780,-9902,89,29,4
32767,32767,2064,44,-42,-76,23590,24610,-1432,-32,-21,29,8362,5758,-9782,75,31,1
32767,32767,2006,29,-28,-99,23728,24688,-1434,-40,-19,36,8364,5740,-9862,66,37,-7
32767,32767,2038,101,-25,-87,23874,24762,-1338,-33,-19,57,8320,5678,-9918,58,43,-11
32767,32767,1980,121,-26,-68,23734,24732,-1408,-46,-18,44,8386,5658,-9846,53,35,-11
32767,32767,1982,98,-23,-94,23776,24662,-1344,-66,-23,27,8388,5628,-9934,51,41,-9
32767,32767,1956,19,-48,-73,23786,24518,-1330,-62,-26,36,8312,5666,-9890,56,40,-9
32767,32767,2062,-43,-47,-77,23726,24340,-1244,-52,-23,25,8286,5644,-9926,62,40,-19
32767,32767,2084,-27,-57,-57,23632,24398,-1236,-31,-34,14,8358,5756,-9924,59,36,-24
32767,32767,2032,6,-31,-72,23626,24612,-1274,-26,-35,20,8300,5738,-9904,49,46,-22
32767,32767,2032,62,-26,-59,23618,24692,-1172,-22,-36,39,8204,5806,-9890,35,45,-18
32767,32767,1998,68,-38,-55,23566,24596,-1316,-56,-35,28,8186,5706,-9932,26,43,-13
32767,32767,2058,6,-39,-35,23700,24634,-1354,-75,-35,11,8410,5632,-9858,23,39,-24
32767,32767,2216,-19,-33,-35,23712,24608,-1506,-77,-16,36,8396,5630,-9818,23,50,-32
32767,32767,2166,-3,-30,-36,23544,24658,-1446,-55,-20,43,8268,5656,-9904,11,55,-31
32767,32767,2078,23,-13,-35,23746,24732,-1580,-54,-25,31,8192,5752,-9972,-15,44,-25
32767,32767,1956,62,-22,-30,23696,24822,-1430,-79,-30,16,8200,5742,-9924,-28,33,-12
32767,32767,1926,4,-40,-16,23656,24744,-1492,-121,-14,6,8296,5734,-9874,-24,35,-2
32767,32767,2086,-75,-46,-2,23622,24498,-1402,-123,-15,18,8290,5600,-9892,-27,43,-5
32767,32767,2200,-52,-51,4,23608,24284,-1452,-109,-18,3,8186,5584,-9922,-30,43,-12
32767,32767,2240,4,-39,-5,23666,24524,-1488,-57,-22,15,8214,5648,-9840,-34,30,-12
32767,32767,2238,-27,-29,-7,23534,24620,-1458,-55,-23,33,8172,5678,-9882,-39,29,-3
32767,32767,2166,-93,-33,-3,23704,24726,-1502,-77,-23,26,8246,5668,-9936,-37,13,3
32767,32767,2156,-129,-34,7,23850,24798,-1506,-101,-13,22,8448,5624,-10136,-26,11,6
32767,32767,2226,-116,-24,16,23762,24716,-1456,-130,8,24,8484,5664,-10166,-29,31,5
32767,32767,2296,-67,-8,18,23578,24570,-1516,-140,5,11,8334,5672,-10040,-53,56,-3
32767,32767,2300,-22,-2,15,23622,24474,-1398,-106,-17,-2,8110,5640,-9864,-65,49,-5
32767,32767,2082,-53,-1,11,23590,24504,-1272,-95,-36,-22,8170,5560,-9828,-42,26,2
32767,32767,1870,-90,-7,10,23756,24642,-1364,-71,-40,-13,8330,5558,-9996,-11,22,16
32767,32767,1904,-90,-11,6,23596,24530,-1404,-50,-37,7,8322,5600,-10028,-12,33,16
32767,32767,1878,-63,-17,5,23532,24568,-1322,-43,-50,-2,8342,5596,-10056,-25,41,15
32767,32767,1970,-35,-15,15,23692,24634,-1570,-50,-50,-3,8372,5582,-10078,-32,47,15
32767,32767,2166,-27,-17,13,23748,24612,-1496,-66,-45,1,8424,5634,-10060,-38,49,13
32767,32767,2100,-56,-14,29,23750,24506,-1522,-100,-30,-13,8382,5650,-10014,-48,59,16
32767,32767,2136,-97,-5,37,23508,24290,-1486,-89,-23,-11,8274,5606,-10058,-62,65,19
32767,32767,2102,-105,-7,35,23712,24234,-1492,-52,-39,-18,8254,5608,-10040,-68,56,19
32767,32767,1850,-68,-9,36,23670,24288,-1490,-18,-46,-27,8254,5626,-10096,-59,52,22
32767,32767,1906,-45,-2,41,23638,24464,-1462,-2,-52,-30,8326,5518,-9982,-50,52,23
32767,32767,1980,-66,-15,35,23804,24702,-1426,-19,-42,-18,8352,5556,-10050,-43,52,15
32767,32767,1940,-87,-23,52,23676,24760,-1416,-43,-24,-6,8308,5580,-10012,-49,52,9
32767,32767,1904,-78,-18,94,23446,24776,-1306,-63,-24,-12,8344,5692,-10080,-51,45,14
32767,32767,2008,-80,-16,62,23648,24410,-1358,-82,-43,-34,8344,5712,-10130,-50,55,27
32767,32767,2160,-109,-20,38,23858,24196,-1314,-45,-54,-44,8262,5758,-10106,-57,68,28
32767,32767,1904,-118,-24,45,23806,24200,-1398,6,-55,-46,8264,5706,-10074,-67,62,22
32767,32767,2106,-75,-20,30,23634,24416,-1374,47,-57,-33,8234,5628,-10030,-68,49,24
32767,32767,2132,-52,-24,39,23732,24758,-1346,44,-60,-18,8192,5546,-9968,-71,44,28
32767,32767,2024,-53,-31,53,23748,24924,-1370,8,-55,-15,8172,5498,-9936,-69,31,18
32767,32767,2258,-69,-26,50,23730,24688,-1416,-30,-50,-31,8214,5578,-10012,-51,21,12
32767,32767,2242,-116,-29,37,23606,24350,-1350,-9,-77,-52,8170,5634,-10036,-52,19,8
32767,32767,2170,-163,-26,40,23714,24198,-1466,40,-90,-60,8130,5690,-9996,-67,15,7
32767,32767,1880,-126,-10,62,23794,24360,-1428,88,-95,-40,8176,5666,-10124,-78,5,7
32767,32767,1886,-64,-5,61,23676,24680,-1406,107,-84,-19,8290,5590,-10222,-76,4,2
32767,32767,2104,-89,7,48,23616,24904,-1482,97,-81,-14,8440,5710,-10222,-73,9,-8
32767,32767,2048,-135,-12,88,23544,24942,-1544,58,-83,-23,8364,5708,-10210,-92,33,-11
32767,32767,1920,-204,-18,52,23660,24664,-1492,34,-97,-42,8218,5598,-10066,-110,35,-9
32767,32767,1866,-194,-11,53,23790,24388,-1428,32,-100,-64,8148,5368,-10098,-108,23,-6
32767,32767,1942,-111,-30,55,23756,24288,-1256,15,-79,-68,8260,5226,-10072,-79,6,-8
32767,32767,1858,-80,-9,72,23584,24358,-1434,35,-58,-46,8312,5298,-10170,-51,1,-11
32767,32767,1950,-73,-6,72,23496,24496,-1262,47,-61,-26,8334,5408,-9986,-33,1,-17
32767,32767,1998,-127,-8,81,23544,24624,-1270,60,-72,-38,8286,5564,-10042,-20,6,-21
32767,32767,2000,-195,-10,98,23506,24698,-1310,48,-72,-46,8196,5788,-10110,-25,6,-19
32767,32767,1864,-197,-3,116,23660,24588,-1240,1,-84,-54,8218,5820,-10176,-54,-3,-17
32767,32767,1838,-163,-17,97,23776,24514,-1386,5,-72,-57,8386,5824,-10248,-71,-3,-29
32767,32767,2004,-154,-14,116,23658,24490,-1436,-11,-67,-42,8470,5774,-10342,-77,15,-33
32767,32767,2154,-152,-37,69,23718,24418,-1286,-13,-71,-54,8346,5652,-10122,-89,38,-35
32767,32767,2218,-189,-31,46,23812,24486,-1388,5,-61,-56,8050,5524,-9922,-101,39,-30
32767,32767,2222,-171,-25,48,23476,24420,-1508,25,-52,-40,8098,5188,-9938,-81,12,-18
32767,32767,2084,-120,-24,45,23428,24410,-1438,38,-75,-48,8288,5126,-10040,-35,-2,-10
32767,32767,2134,-99,-9,43,23736,24488,-1410,17,-83,-62,8342,5242,-10084,10,-2,-15
32767,32767,1952,-125,-3,42,23810,24508,-1434,11,-59,-62,8322,5596,-10098,26,3,-25
32767,32767,1754,-179,-5,32,23634,24440,-1480,17,-52,-59,8364,5718,-9988,11,4,-26
32767,32767,1796,-185,-11,34,23342,24324,-1404,30,-69,-68,8344,5608,-10100,-19,6,-29
32767,32767,1718,-157,-24,38,23734,24502,-1380,76,-87,-68,8460,5480,-10110,-36,18,-36
32767,32767,1890,-139,-26,49,23694,24692,-1402,46,-66,-33,8420,5442,-10222,-26,32,-41
32767,32767,1928,-113,-26,41,23632,24648,-1386,41,-54,-18,8396,5470,-10056,-24,43,-45
32767,32767,2006,-109,-21,28,23734,24778,-1378,27,-69,-34,8274,5492,-9872,-36,42,-50
32767,32767,1954,-77,-22,18,23702,24742,-1492,16,-54,-38,8112,5418,-9910,-44,31,-52
32767,32767,1880,-93,-43,19,23716,24580,-1502,10,-54,-29,8232,5298,-10010,-11,11,-42
32767,32767,2012,-157,-45,29,23826,24658,-1336,-9,-52,-33,8424,5412,-10184,16,14,-37
32767,32767,2082,-182,-43,33,23746,24678,-1496,2,-39,-23,8438,5558,-10298,17,32,-33
32767,32600,2070,-119,-33,27,23412,24622,-1444,9,-49,-6,8330,5594,-10156,4,48,-27
32767,32660,2052,-27,-22,11,23522,24566,-1506,36,-80,-13,8172,5442,-9970,0,38,-29
32767,32767,2004,31,-23,1,23876,24628,-1472,46,-84,-24,8242,5348,-9934,-1,18,-34
32767,32767,2128,-20,-33,-3,23994,24690,-1486,20,-56,-8,8300,5316,-10040,-3,13,-28
32767,32767,2040,-110,-44,5,23644,24644,-1610,23,-32,-1,8372,5300,-10158,15,19,-9
32767,32767,2086,-119,-39,10,23452,24624,-1548,23,-40,-8,8424,5466,-10340,49,35,12
32767,32767,2066,-45,-32,3,23528,24630,-1504,18,-47,-4,8400,5570,-10290,47,44,9
32767,32767,2102,22,-32,-18,23560,24510,-1432,23,-54,2,8342,5498,-10122,16,51,2
32767,32767,2080,49,-14,-31,23486,24472,-1516,29,-59,-5,8230,5320,-10110,-2,48,-2
32767,32767,1954,95,-31,-29,23554,24452,-1544,41,-73,-8,8214,5232,-10008,11,32,1
32767,32767,2018,28,-35,-28,23778,24496,-1408,40,-75,-18,8268,5240,-10250,47,26,11
32767,32767,2062,-55,-32,-18,23868,24512,-1518,35,-55,-17,8408,5320,-10368,76,38,19
32767,32767,2092,-69,-35,-30,23710,24638,-1448,37,-48,-2,8386,5420,-10222,68,62,21
32767,32670,1910,-7,-27,-48,23622,24668,-1348,50,-47,-2,8168,5438,-9912,35,71,12
32767,32767,1870,50,-32,-84,23584,24756,-1328,58,-49,-4,8020,5276,-9718,13,33,3
32767,32767,1906,63,-42,-73,23646,24752,-1378,47,-49,10,8136,5226,-9986,34,2,4
32767,32767,1938,29,-46,-50,23808,24756,-1356,39,-52,15,8282,5320,-10154,55,3,11
32767,32767,1994,-38,-56,-33,23672,24806,-1410,19,-47,11,8326,5416,-10322,51,28,12
