ax,ay,az,gx,gy,gz,ax,ay,az,gx,gy,gz,ax,ay,az,gx,gy,gz
32767,30430,1806,-35,-52,-6,23286,21880,-536,-17,-45,-3,8672,6964,-7536,-5,41,13
32767,30698,2012,4,-43,-3,23206,21914,-606,-9,-48,-4,8630,6924,-7526,-24,42,10
32767,30946,2060,-29,-36,-3,23256,21988,-616,-15,-54,-5,8610,6962,-7510,-43,34,2
32767,30746,2020,-79,-36,-3,23366,22048,-592,-21,-57,-5,8722,6906,-7568,-53,19,0
32767,30668,1986,-73,-37,6,23336,22150,-680,-36,-52,-12,8794,6924,-7588,-58,9,0
32767,30638,1988,-62,-30,10,23276,22076,-668,-47,-52,-10,8786,6900,-7676,-71,20,-7
32767,30642,1948,-54,-27,17,23424,22132,-690,-47,-52,-6,8642,6822,-7580,-85,38,-11
32767,30678,1952,-55,-25,19,23420,22218,-682,-53,-40,-8,8586,6768,-7568,-70,26,-11
32767,30778,1944,-68,-21,21,23288,22162,-658,-54,-34,-1,8632,6794,-7592,-41,10,-8
32767,30938,1926,-91,-28,23,23194,22056,-648,-45,-39,-5,8750,6872,-7712,-15,5,-5
32767,30858,1850,-111,-24,21,23298,22096,-644,-32,-47,-9,8752,6912,-7740,-1,16,-2
32767,30764,1842,-103,-31,20,23440,22128,-664,-33,-50,-3,8702,7036,-7782,0,24,-7
32767,30788,1858,-88,-38,17,23420,22140,-662,-29,-43,0,8760,7096,-7766,-9,24,-2
32767,30744,1866,-78,-37,18,23320,22226,-624,-36,-39,-5,8826,7066,-7772,-31,29,-1
32767,30836,1866,-69,-32,17,23330,22120,-742,-46,-38,-8,8744,7010,-7694,-56,37,-3
32767,30892,1886,-59,-29,19,23350,22064,-698,-57,-33,-7,8638,6938,-7714,-51,38,-1
32767,31002,2002,-86,-34,13,23280,21990,-676,-54,-30,-7,8698,6842,-7592,-45,29,3
32767,30776,1836,-107,-36,10,23238,22020,-628,-52,-35,-7,8754,6770,-7600,-39,28,2
32767,30712,1796,-88,-37,11,23224,22028,-506,-41,-37,-8,8732,6794,-7654,-40,33,-5
32767,30862,1816,-76,-48,13,23296,22042,-512,-29,-44,-6,8630,6770,-7772,-40,31,-3
32767,30772,1812,-101,-52,11,23336,21942,-426,-24,-52,-6,8582,6804,-7734,-26,29,4
32767,30630,1988,-111,-49,11,23284,21944,-540,-10,-52,-5,8622,6870,-7700,-12,15,8
32767,30598,2082,-90,-42,13,23278,21996,-676,-9,-47,-4,8732,6854,-7622,-10,12,11
32767,30670,2094,-71,-34,14,23328,22174,-668,-14,-48,-1,8698,6888,-7610,-15,25,14
32767,30638,2084,-64,-24,19,23398,22288,-666,-27,-40,-3,8632,6816,-7646,-8,24,15
32767,30668,1964,-59,-21,18,23328,22240,-622,-42,-36,-5,8598,6858,-7644,9,6,8
32767,30844,1952,-52,-23,17,23336,22120,-720,-56,-35,-4,8748,6898,-7702,18,-5,1
32767,31028,1840,-97,-25,18,23350,21984,-630,-53,-36,-10,8868,7036,-7720,2,4,1
32767,30796,1832,-130,-24,17,23354,21976,-626,-50,-39,-15,8838,7154,-7810,-25,22,2
32767,30576,1806,-102,-23,21,23308,22040,-738,-38,-37,-11,8750,7126,-7776,-44,34,5
32767,30584,1806,-64,-25,21,23266,22190,-632,-39,-40,-3,8762,7064,-7760,-65,37,0
32767,30750,1860,-58,-28,13,23286,22184,-604,-44,-43,-2,8752,6862,-7700,-96,39,-1
32767,30958,1790,-75,-39,10,23342,22072,-706,-55,-44,-7,8682,6758,-7700,-90,40,-7
32767,30944,1824,-119,-38,8,23270,21998,-610,-58,-37,-11,8778,6682,-7766,-65,33,-6
32767,30768,1874,-120,-37,13,23274,21900,-704,-43,-36,-8,8710,6786,-7706,-38,29,1
32767,30638,1926,-81,-32,15,23294,21880,-706,-20,-37,-7,8682,6840,-7756,-26,31,5
32767,30740,1928,-76,-30,14,23260,22004,-578,-7,-41,-10,8636,6862,-7748,-20,27,8
32767,30734,1824,-82,-30,11,23308,22096,-634,-13,-45,-7,8672,6842,-7696,-13,20,5
32767,30630,1774,-78,-35,8,23192,22150,-578,-30,-52,-7,8752,6770,-7772,-8,18,6
32767,30602,1814,-72,-41,6,23290,22032,-622,-32,-56,-11,8822,6754,-7696,-11,32,6
32767,30714,1882,-64,-44,5,23346,21956,-656,-27,-55,-11,8612,6836,-7764,-18,29,2
32767,30798,1964,-63,-36,9,23378,21928,-732,-8,-45,-12,8606,6872,-7692,-18,15,5
32767,30676,2038,-69,-33,13,23276,22032,-758,7,-40,-10,8642,6956,-7730,-13,9,10
32767,30692,1988,-73,-24,14,23392,22202,-732,7,-45,-8,8718,7014,-7716,-8,16,11
32767,30632,1810,-61,-21,15,23428,22248,-650,-9,-39,-6,8746,6940,-7712,-4,21,11
32767,30832,1766,-60,-25,10,23308,22186,-666,-39,-37,-5,8756,6834,-7708,-5,25,9
32767,30824,1820,-67,-34,8,23230,21992,-596,-67,-48,-6,8798,6824,-7650,-8,29,9
32767,30910,1766,-69,-38,7,23230,21802,-560,-64,-48,-14,8808,6858,-7674,-15,37,8
32767,30770,1900,-78,-39,11,23274,21730,-698,-32,-44,-15,8694,6820,-7692,-10,36,8
32767,30694,2016,-65,-39,9,23288,21818,-728,6,-39,-11,8610,6890,-7764,-11,33,6
32767,30752,2072,-71,-39,6,23198,21942,-676,37,-42,-15,8568,6828,-7720,-15,25,6
32767,30588,1894,-95,-38,6,23118,22006,-604,37,-52,-18,8644,6794,-7640,-11,21,6
32767,30494,1796,-77,-45,9,23254,22072,-566,44,-65,-5,8718,6754,-7818,-1,11,13
32767,30572,1840,-67,-55,7,23230,21988,-526,53,-86,-6,8726,6738,-7790,26,10,16
32767,30632,1846,-82,-60,4,23280,21984,-512,61,-87,-8,8704,6722,-7728,42,10,11
32767,30488,1988,-56,-44,8,23390,21944,-634,65,-75,13,8662,6768,-7682,69,4,5
32767,30420,2228,-11,-36,6,23422,21890,-690,84,-57,23,8592,6868,-7558,92,2,3
32767,30538,2168,19,-28,3,23198,21970,-648,91,-55,12,8504,6888,-7446,90,-17,-3
32767,30860,2044,23,-16,-5,23168,22090,-634,69,-56,0,8548,6840,-7432,80,-53,-16
32767,31000,2012,10,-21,4,23364,22196,-692,58,-61,9,8740,6756,-7546,95,-77,-18
32767,30770,1896,-51,-61,7,23516,22206,-582,57,-40,16,8916,6806,-7598,115,-60,-17
32767,30746,1764,-87,-82,5,23412,22232,-804,64,-19,8,8914,6870,-7524,109,-24,-28
32767,30456,1816,-95,-74,6,23358,22252,-798,74,3,1,8654,7012,-7574,92,-6,-40
32767,30434,1816,-37,-64,12,23154,22272,-788,71,-7,-4,8496,7160,-7598,81,-12,-37
32767,30876,1854,-1,-66,14,23258,22258,-694,67,-23,-6,8560,7270,-7656,71,-36,-16
32767,30982,1796,-19,-76,18,23284,22386,-652,70,-55,6,8900,7170,-7658,48,-49,-12
32767,30892,1742,-43,-91,24,23328,22626,-668,72,-80,-1,9222,6964,-7708,20,-22,-28
32767,30700,1862,-39,-110,32,23396,22660,-702,44,-90,1,9076,6852,-7788,-9,30,-45
32767,30750,1962,-29,-81,21,23410,22670,-630,21,-77,4,8730,6858,-7726,-17,53,-47
32767,30842,2134,1,-46,13,23364,22528,-848,0,-66,2,8552,6906,-7642,-9,37,-28
32767,30812,2346,31,-20,11,23176,22276,-834,12,-58,-4,8596,6884,-7546,2,11,-2
32767,31220,2328,57,-18,8,23296,22036,-922,24,-73,-7,8698,6904,-7550,14,7,9
32767,31444,2212,25,-9,12,23406,22106,-780,72,-85,-8,8640,6886,-7656,63,3,7
32767,31342,2084,-21,-13,9,23488,22090,-880,108,-76,-12,8832,6922,-7760,97,-14,12
32767,30964,2046,-63,-29,-2,23270,22246,-910,113,-71,-21,8984,6894,-7812,86,4,18
32767,30644,1918,-67,-40,-13,23334,22454,-938,116,-70,-20,8940,6936,-7696,49,40,6
32767,30424,1776,17,-29,-24,23434,22674,-826,90,-63,-10,8698,6916,-7550,31,52,-1
32767,30664,1706,78,-34,-30,23308,22716,-764,43,-48,-16,8678,6818,-7518,39,34,-1
32767,30938,1760,83,-27,-30,23030,22530,-760,1,-59,-40,8730,6772,-7576,44,15,-6
32767,31008,1926,73,-33,-18,23022,22144,-438,-27,-91,-73,8754,6684,-7512,38,15,-13
32767,31224,1900,50,-60,-13,23436,22062,-576,-6,-94,-87,8664,6722,-7638,58,17,-13
32767,31286,1812,4,-74,-23,23426,21848,-630,50,-73,-59,8728,6854,-7750,83,21,-4
32767,30772,1924,-43,-69,-62,23336,21758,-630,103,-70,-82,8716,6920,-7596,93,27,0
32767,30092,2086,-61,-45,-71,23518,22318,-628,120,-65,-106,8574,6988,-7510,75,30,-9
32767,30180,2300,4,-28,-40,23232,22640,-874,159,-61,-58,8478,6946,-7450,59,15,-15
32767,30986,2236,58,-4,-127,23032,22694,-546,103,-72,-66,8526,6822,-7314,70,-18,-10
32767,30620,2046,8,-5,-144,23346,22904,-626,86,-70,-84,8774,6740,-7356,85,-44,-10
32767,30806,1986,6,-12,-86,23422,22994,-928,54,-64,-50,8980,6728,-7558,105,-36,-23
32767,30922,2056,61,-17,-103,23278,22728,-704,24,-59,-54,8618,6878,-7622,135,0,-29
32767,31614,2356,-3,-15,-76,23482,22774,-942,24,-64,-86,8482,7044,-7562,105,0,-28
32767,31084,2182,-20,-3,-146,23388,22580,-936,-21,-52,-56,8576,7230,-7616,58,-20,-25
32767,31154,2342,89,-28,-6,23376,22624,-938,-2,-39,-47,8864,7202,-7590,42,-24,-9
32767,31604,1948,44,0,-96,23278,22474,-890,4,-36,-23,8960,7176,-7688,32,8,-6
32767,31484,2058,-35,17,-79,23464,22364,-832,20,-30,-9,8852,7102,-7550,2,28,-20
32767,31484,1940,-24,19,-108,23488,22610,-1008,88,-32,-9,8682,6988,-7482,-42,32,-36
32767,31510,1832,1,-6,-19,23384,22862,-996,67,-34,-18,8786,6852,-7638,-52,19,-34
32767,31408,1924,-11,5,-45,23286,22876,-790,43,-40,-19,8970,6728,-7746,-29,46,-12
32767,31398,1880,10,-23,-19,23474,22772,-826,-15,-52,-25,8832,6714,-7616,-7,68,-11
32767,31218,1782,25,-18,-20,23418,22546,-708,-29,-36,-15,8676,6828,-7586,26,57,-11
32767,31662,1828,24,-29,-26,23430,22436,-850,-24,-37,-5,8720,6800,-7606,57,34,-8
32767,31532,2042,-39,-22,-29,23430,22496,-690,-10,-40,-3,8878,6958,-7526,63,34,-12
32767,31010,2192,-30,-44,-18,23354,22586,-688,-1,-34,4,8812,7016,-7484,36,53,-7
32767,31148,2104,21,-36,-16,23334,22758,-646,11,-39,12,8708,6996,-7416,24,49,-5
32767,31410,2048,25,-38,-13,23266,22730,-736,2,-26,13,8674,6932,-7406,25,28,-7
32767,31624,2078,-12,-44,-16,23244,22584,-628,15,-36,18,8798,6904,-7584,44,27,-1
32767,31556,2064,-55,-46,-11,23490,22662,-662,21,-47,9,8652,7090,-7636,41,46,5
32767,31446,2150,-88,-54,-11,23364,22752,-796,41,-40,19,8666,7118,-7676,22,55,14
32767,31210,2114,-95,-51,-5,23188,22836,-788,44,-41,36,8690,7148,-7690,-4,56,22
32767,30792,2176,-62,-38,-7,23224,22802,-892,44,-53,41,8706,7012,-7552,-24,51,24
32767,31034,2112,31,-26,-16,23206,22814,-920,35,-73,43,8668,6886,-7574,-22,46,30
32767,31626,2186,43,-16,-12,23400,22694,-790,15,-76,45,8634,6796,-7648,9,47,40
32767,31764,2276,-21,-10,-13,23654,22624,-784,14,-58,49,8774,6800,-7824,42,43,48
32767,31444,2212,-69,-10,-15,23616,22604,-926,22,-29,48,8848,6868,-7878,55,47,39
32767,31050,2072,-51,-5,-14,23178,22514,-1014,23,-11,52,8788,7000,-7726,30,71,26
32767,31034,2080,-7,14,-36,23094,22412,-944,40,-34,60,8558,7094,-7504,6,73,26
32767,31280,1944,24,18,-36,23360,22454,-732,68,-50,65,8560,7072,-7458,5,47,31
32767,31470,1636,16,3,-35,23518,22670,-720,113,-42,61,8786,6838,-7588,35,11,34
32767,31316,1806,-45,-12,-13,23344,22874,-720,124,-35,56,8940,6664,-7712,66,6,25
32767,30902,2008,-36,-24,-1,23412,23070,-718,109,-42,53,8866,6726,-7854,75,36,14
32767,30902,2092,28,-25,4,23494,23174,-732,46,-31,56,8568,6884,-7846,85,59,16
32767,31234,2040,44,-29,2,23412,23102,-746,1,-19,78,8534,7120,-7742,95,53,34
32767,31278,2024,13,-23,3,23356,22828,-650,-5,-43,93,8754,7192,-7526,90,24,43
32767,31354,2072,14,-23,15,23376,22860,-716,13,-58,76,8834,7076,-7436,71,9,29
32767,31628,2176,19,-19,25,23530,22966,-732,9,-62,77,8834,6996,-7534,65,-2,12
32767,31750,2280,-6,-9,51,23882,23102,-852,12,-43,81,8748,6986,-7798,68,7,14
32767,31638,2254,-56,-7,35,23766,23146,-956,-3,-28,84,8792,7168,-7826,61,22,30
32767,31052,2138,-50,-1,40,23452,23182,-792,-40,-30,58,8732,7300,-7690,22,33,31
32767,30980,2242,35,9,63,23402,23062,-840,-63,-39,21,8720,7380,-7414,-17,26,18
32767,32002,2210,89,3,95,23428,22776,-628,-89,-44,12,8906,7460,-7606,-23,8,23
32767,32138,1970,-45,-20,76,23446,22848,-638,-39,-23,41,8952,7410,-7792,-34,25,44
32767,31250,1908,-186,-28,76,23358,23092,-548,-40,-14,39,8820,7396,-7656,-64,52,43
32767,30454,1898,-194,-34,24,23440,23312,-840,-42,-18,48,8674,7134,-7344,-114,65,25
32767,30504,2140,-81,-43,24,23274,23178,-668,-88,-21,40,8548,6946,-7396,-124,61,11
32767,30882,2082,26,-41,42,23446,22906,-978,-130,-30,14,8344,6924,-7446,-82,40,11
32767,32202,2194,16,-39,59,23440,22716,-694,-143,-34,29,8468,7036,-7680,-42,7,25
32767,32580,2236,-154,-29,59,23730,22986,-906,-94,-38,33,8744,7222,-7726,-47,-9,32
32767,31080,2186,-217,-35,59,23460,23302,-986,-36,-24,72,8922,7278,-7770,-93,11,32
32767,30518,2398,-214,-26,90,23346,23374,-996,-65,-34,64,8788,7194,-7630,-122,26,22
32767,30876,2322,-113,-8,79,23378,23376,-1022,-88,-39,31,8712,7094,-7494,-138,8,3
32767,31484,2180,-67,-1,46,23584,23262,-884,-155,-49,19,8720,7078,-7692,-136,-1,1
32767,32204,2108,-77,-23,158,23456,22964,-1130,-137,-30,36,8836,7020,-7798,-109,6,23
32767,32198,2100,-120,-5,79,23086,22576,-874,-134,-32,14,8844,7064,-7848,-82,6,38
32767,31616,1952,-251,-23,103,23332,22726,-826,-85,-49,3,8954,7040,-7934,-69,13,32
32767,31286,2232,-244,-14,64,23524,22898,-938,-43,-47,38,8762,7076,-7836,-80,32,16
32767,31352,1920,-151,-16,54,23214,22754,-766,-59,-33,34,8612,7208,-7738,-77,40,19
32767,31298,1770,-86,-18,48,23472,23050,-694,-86,-43,-9,8676,7090,-7588,-86,25,32
32767,31204,1948,-121,-28,58,23628,23288,-940,-58,-25,48,8780,6924,-7654,-103,33,24
32767,30960,1884,-102,-35,54,23242,23006,-878,-80,-24,77,8648,6874,-7546,-94,40,15
32767,31210,1766,-60,-40,110,23182,23026,-782,-104,-63,-15,8584,6890,-7434,-50,25,16
32767,31688,1940,-134,-37,15,23572,23124,-832,-105,-69,-15,8740,6990,-7476,-30,4,5
32767,31240,1964,-187,-45,133,23610,22790,-906,-131,-42,19,8776,7184,-7648,-39,14,4
32767,31414,1876,-75,-26,104,23288,22644,-936,-98,-40,16,8716,7266,-7916,-34,21,16
32767,31090,1910,-62,-22,109,23434,22774,-1024,-56,-54,7,8766,7330,-7900,-42,26,20
32767,31532,2282,-150,-25,90,23674,22886,-974,-43,-42,15,8722,7214,-7592,-114,52,5
32767,31220,2150,-183,-9,34,23494,22922,-928,-66,-25,-11,8678,7026,-7564,-131,43,5
32767,31346,2044,-148,0,65,23238,22990,-880,-119,-17,-42,8746,6884,-7578,-99,27,9
32767,31308,1956,-133,0,42,23122,22820,-644,-167,-32,-32,8778,6840,-7650,-73,26,8
32767,31232,1772,-121,-1,74,23184,22454,-716,-164,-30,-29,8724,6936,-7652,-57,35,8
32767,31204,1540,-112,-17,39,23162,22332,-762,-94,-35,-6,8684,6990,-7682,-41,32,1
32767,31460,1724,-176,-38,17,23342,22498,-946,-26,-41,6,8744,7112,-7646,-39,24,-7
32767,31146,1902,-249,-47,7,23338,23052,-922,-1,-47,4,8780,7026,-7616,-67,33,-14
32767,30878,1972,-247,-59,16,23238,23448,-962,-43,-35,17,8584,6892,-7594,-92,49,-21
32767,30754,2050,-184,-49,28,23272,23396,-1056,-99,-53,39,8444,6752,-7620,-83,33,-35
32767,30864,1942,-92,-24,50,23748,23196,-972,-152,-56,22,8634,6764,-7782,-56,4,-35
32767,31368,1808,-20,-10,74,23606,22892,-982,-212,-24,-1,8872,6884,-7788,-36,11,-34
32767,32128,1808,-76,-3,83,23450,22702,-1002,-210,-22,10,8878,6940,-7774,-46,34,-45
32767,31826,1928,-172,-1,93,23540,22548,-962,-183,-25,5,8828,6996,-7792,-68,51,-57
32767,31236,1920,-165,4,111,23742,22518,-832,-147,-27,-9,8800,7136,-7726,-73,51,-46
32767,31496,1760,-142,4,115,23352,22480,-826,-125,-15,-19,8784,7120,-7786,-79,51,-35
32767,31736,1712,-184,-4,109,22936,22466,-770,-95,-34,-18,8856,7002,-7778,-87,47,-42
32767,31444,1584,-238,-27,136,23168,22586,-836,-68,-53,-7,8852,6864,-7790,-89,55,-54
32767,31284,1572,-267,-42,94,23412,22602,-694,-66,-49,8,8762,6918,-7848,-77,57,-45
32767,30616,1570,-266,-56,97,23266,22694,-804,-67,-45,-8,8740,6896,-7860,-65,64,-30
32767,30676,1794,-197,-72,56,23362,22798,-732,-96,-46,-26,8710,6692,-7684,-72,69,-45
32767,31126,1964,-183,-73,60,23394,22788,-820,-126,-35,-25,8576,6596,-7704,-86,70,-71
32767,30914,1866,-160,-67,68,23568,22666,-708,-165,-23,-25,8536,6580,-7744,-78,62,-81
32767,30792,1856,-113,-50,74,23448,22550,-742,-175,-12,-29,8514,6616,-7824,-43,54,-71
32767,31224,1808,-97,-44,59,23196,22272,-632,-163,-25,-34,8560,6736,-7724,-29,46,-72
32767,31254,1808,-153,-44,55,23278,22136,-614,-134,-44,-46,8758,6864,-7588,-31,36,-98
32767,31192,1864,-197,-52,52,23560,22100,-658,-89,-50,-50,8772,7014,-7628,-43,49,-109
32767,31130,1776,-238,-58,47,23532,22248,-710,-22,-51,-44,8750,6902,-7832,-92,58,-99
32767,31066,1912,-234,-67,50,23342,22364,-660,10,-59,-50,8772,6710,-7978,-121,66,-93
32767,30898,2042,-254,-70,45,23338,22578,-720,9,-67,-55,8800,6584,-7848,-119,68,-100
32767,30480,2000,-243,-64,40,23356,22626,-650,-2,-65,-55,8722,6560,-7846,-113,66,-103
32767,30040,1950,-164,-54,32,23416,22586,-696,-1,-66,-69,8714,6476,-7830,-116,60,-91
32767,30450,1942,-55,-61,22,23324,22480,-684,5,-65,-70,8692,6352,-7786,-88,52,-73
32767,31012,1980,-55,-68,17,23484,22346,-678,22,-75,-77,8644,6294,-7798,-31,45,-70
32767,31056,1974,-71,-73,9,23518,22542,-470,34,-63,-92,8606,6286,-7870,6,33,-72
32767,30702,1982,-110,-46,-9,23374,22496,-614,38,-57,-82,8576,6386,-7924,43,25,-66
32767,30410,1954,-40,-64,8,23302,22426,-548,19,-63,-96,8656,6482,-7888,70,21,-50
32767,30730,1970,17,-51,-21,23338,22652,-532,7,-62,-98,8588,6580,-7894,77,23,-38
32767,31048,1956,25,-51,-45,23280,22540,-618,22,-54,-65,8536,6610,-7750,68,24,-31
32767,31118,2046,2,-56,-54,23414,22408,-498,20,-69,-80,8484,6578,-7794,66,6,-37
32767,30980,1942,-19,-53,-84,23324,22366,-652,42,-76,-115,8542,6612,-7682,63,-11,-42
32767,30686,1868,-44,-51,-59,23374,22370,-638,74,-82,-82,8672,6614,-7954,28,-4,-44
32767,31092,2158,8,-59,-51,23438,22488,-710,120,-86,-66,8610,6560,-7890,7,11,-37
32767,31324,2008,2,-35,-86,23400,22740,-834,92,-75,-66,8674,6578,-7970,5,8,-18
32767,30672,2082,-43,-25,-72,23448,22768,-786,56,-70,-79,8710,6504,-7940,2,12,-10
32767,30750,2238,-50,-10,-115,23560,22734,-914,49,-66,-90,8632,6384,-7774,1,20,-19
32767,30674,2018,52,2,-111,23500,22594,-828,38,-60,-78,8558,6362,-7754,12,8,-26
32767,31394,2216,125,-11,-78,23390,22258,-770,48,-63,-82,8578,6242,-7806,32,-7,-23
32767,31984,1938,101,0,-127,23400,22582,-674,63,-61,-75,8612,6266,-7862,54,-8,-13
32767,31828,2056,19,-1,-117,23246,22586,-752,81,-41,-13,8744,6340,-7860,87,-9,2
32767,31220,1824,-95,-14,-64,23328,22598,-678,62,-59,-25,8846,6450,-7926,114,-1,8
32767,30912,1944,-86,-10,-100,23488,22968,-808,89,-61,-50,8754,6530,-7894,120,10,9
32767,30764,1746,11,-16,-108,23386,22842,-792,44,-64,-15,8706,6592,-7842,89,17,-3
32767,31022,1752,70,-12,-87,23526,22592,-564,1,-68,-27,8516,6570,-7726,36,22,-21
32767,31936,2044,111,-19,-65,23518,22716,-714,-29,-51,-46,8526,6518,-7800,19,12,-23
32767,32198,1878,17,-20,-88,23242,22464,-648,6,-48,-8,8716,6478,-7786,28,11,-10
32767,31628,2050,-66,-44,-30,23278,22322,-698,58,-72,-9,8910,6616,-7820,48,29,-1
32767,31214,2110,-52,-31,-48,23558,22558,-662,100,-78,-14,8764,6682,-7792,32,54,1
32767,31128,2020,-13,-13,-86,23556,22662,-554,109,-63,6,8600,6600,-7656,-9,42,-6
32767,31088,2034,33,-19,-43,23286,22720,-754,97,-64,7,8618,6558,-7816,-30,27,-4
32767,31592,2182,52,-35,-11,23170,22688,-736,70,-80,-4,8668,6448,-7880,-7,32,11
32767,31656,2118,-26,-32,-21,23396,22660,-704,43,-88,-10,8672,6470,-7874,26,45,17
32767,31056,2040,-44,-26,-29,23446,22676,-748,-1,-65,-4,8628,6472,-7820,33,52,19
32767,31002,2020,93,-18,-26,23226,22456,-902,15,-60,2,8528,6462,-7754,32,40,19
32767,31508,2040,128,-20,-19,23574,22500,-832,61,-72,-15,8596,6450,-7776,45,23,16
32767,31490,2176,86,-6,-26,23506,22672,-896,79,-46,-3,8752,6510,-7894,60,23,4
32767,31382,2184,49,-7,-28,23124,22672,-882,76,-46,5,8630,6570,-7774,29,50,-6
32767,31374,2064,9,-7,-29,23186,22718,-794,71,-64,2,8540,6580,-7798,-4,47,-9
32767,31376,1882,-18,-12,-26,23516,22718,-746,68,-64,-10,8636,6472,-7968,-9,38,-7
32767,31060,1808,-17,-16,-22,23494,22692,-752,58,-52,-12,8652,6450,-7942,10,52,-5
32767,31008,1774,4,-15,-30,23354,22606,-678,53,-49,-2,8646,6434,-7958,8,62,-5
32767,31346,1750,34,-22,-20,23484,22652,-618,48,-47,4,8666,6426,-7940,-7,58,-13
32767,31396,1814,25,-31,-23,23586,22670,-612,56,-45,-3,8690,6326,-8026,-9,63,-23
32767,31128,1856,16,-30,-24,23520,22704,-610,44,-48,-12,8648,6352,-7978,-6,77,-22
32767,31138,1914,44,-26,-31,23500,22756,-558,49,-41,-5,8514,6330,-7814,15,79,-4
32767,31198,1934,68,-30,-31,23402,22764,-450,58,-46,13,8494,6262,-7764,33,67,2
32767,31384,1984,105,-24,-32,23400,22850,-492,94,-54,24,8578,6258,-7802,51,51,-3
32767,31794,1992,85,-29,-26,23512,22870,-594,111,-52,32,8658,6400,-7886,87,32,-4
32767,31586,2050,32,-32,-21,23628,23046,-746,128,-57,45,8698,6664,-7946,101,32,1
32767,31370,2138,-29,-38,-18,23672,23168,-782,125,-55,40,8682,6796,-7920,72,49,9
32767,31296,2048,-14,-36,-13,23648,23248,-832,95,-52,30,8528,6768,-7830,27,54,12
32767,31348,2252,39,-28,-4,23578,23252,-794,50,-44,30,8482,6644,-7864,17,40,15
32767,31744,2346,77,-23,2,23616,23050,-820,11,-31,32,8562,6536,-7952,42,27,26
32767,31868,2332,48,-13,1,23534,22848,-804,16,-29,40,8664,6506,-7880,51,26,31
32767,31734,2162,35,-6,5,23344,22906,-764,44,-40,40,8706,6574,-7984,70,31,43
32767,31850,2180,39,-6,-15,23404,22960,-716,50,-46,44,8738,6652,-8076,83,42,53
32767,31744,1980,15,-4,-15,23558,22960,-734,28,-47,52,8746,6734,-8044,77,47,57
32767,31676,1970,19,-18,-16,23644,23050,-860,38,-33,52,8664,6730,-7992,53,46,59
32767,31706,1876,43,-24,-12,23450,23244,-774,10,-29,31,8612,6654,-8016,31,41,58
32767,31784,2012,46,-31,-8,23460,23260,-770,-18,-36,23,8608,6524,-7948,26,41,56
32767,31862,2032,31,-34,-3,23570,23034,-698,-55,-42,13,8682,6430,-7982,32,34,43
32767,31842,2098,19,-34,1,23414,22884,-610,-74,-33,-2,8610,6560,-8000,30,35,30
32767,31706,2120,5,-26,2,23294,22792,-676,-52,-29,6,8550,6708,-7918,30,33,31
32767,31772,1952,32,-32,27,23388,22866,-494,6,-45,21,8560,6816,-8002,23,28,45
32767,31792,2000,8,-43,23,23520,23150,-782,57,-44,45,8644,6884,-7966,9,24,54
32767,31838,2094,-27,-59,54,23438,23374,-646,43,-61,52,8772,6818,-7984,-14,28,44
32767,31638,2256,-52,-55,28,23810,23710,-1048,25,-59,51,8628,6792,-7950,-36,39,34
32767,31376,2236,-76,-54,16,23736,23704,-876,-47,-38,58,8414,6702,-7890,-40,45,35
32767,31344,2046,-106,-48,5,23210,23200,-970,-143,-27,17,8302,6622,-7790,-27,23,41
32767,31442,2054,-73,-41,7,23320,22826,-758,-173,-42,-16,8456,6508,-7906,-23,-3,34
32767,31676,2182,-17,-40,34,23664,22632,-986,-121,-46,5,8662,6524,-8068,-6,-8,37
32767,31908,2228,31,-29,63,23544,22684,-880,-66,-40,27,8748,6612,-7974,11,3,39
32767,32416,2298,-7,-17,75,23610,23130,-798,25,-43,42,8698,6958,-7868,15,6,35
32767,32488,2138,-76,-2,91,23504,23502,-856,43,-38,61,8636,7126,-8050,-12,13,37
32767,31830,2010,-140,-5,60,23558,23602,-898,-45,-52,37,8656,7140,-8140,-56,11,38
32767,31286,1938,-159,-14,42,23580,23374,-818,-93,-39,42,8742,6876,-8012,-105,20,27
32767,31100,1818,-121,-12,52,23568,23212,-832,-114,-40,42,8712,6656,-7958,-142,36,11
32767,31192,1982,-33,-30,104,23534,23138,-968,-99,-38,43,8600,6482,-7932,-126,42,17
32767,32524,2046,-69,-27,73,23178,22954,-790,-97,-48,42,8470,6562,-8008,-80,27,28
32767,32404,2048,-100,-13,36,23572,23026,-740,-122,-53,7,8544,6658,-8042,-46,13,37
32767,31790,1886,-74,-35,90,23422,22824,-932,-98,-25,59,8678,6656,-8022,-19,7,33
32767,31618,2036,-106,-30,111,23208,22684,-604,-76,-43,33,8782,6708,-8026,-10,22,27
32767,31488,1970,-45,-21,97,23824,23130,-1052,-14,-48,16,8652,6742,-7960,-16,38,28
32767,32004,1910,-32,-16,66,23458,23254,-790,-28,-26,52,8574,6826,-8032,-20,29,35
32767,31854,1894,-86,-29,119,23162,23180,-810,-73,-29,2,8642,6860,-8114,-33,22,37
32767,31992,2006,-131,-24,118,23250,23290,-794,-106,-40,-25,8668,6854,-7968,-53,42,28
32767,32128,2048,-191,-22,-30,23450,23034,-758,-122,-43,12,8658,6860,-7966,-103,48,12
32767,31604,1890,-172,-19,84,23502,22644,-894,-78,-31,28,8598,6750,-7992,-137,48,6
32767,31736,2024,-94,-25,50,23512,23014,-840,-2,-51,9,8634,6528,-7990,-131,38,10
32767,31564,2106,-108,-24,55,23756,23390,-1058,23,-44,27,8626,6650,-8060,-97,45,10
32767,31470,1894,-90,-10,123,23576,23552,-832,-32,-38,23,8520,6670,-8070,-73,55,10
32767,31956,1834,-87,-37,51,23340,23532,-884,-100,-30,-10,8444,6638,-7992,-52,34,11
32767,31798,2006,-187,-38,0,23406,23236,-948,-147,-42,-11,8588,6488,-8070,-52,28,1
32767,31320,2136,-179,-38,42,23486,22824,-890,-161,-43,-21,8500,6436,-7952,-67,41,-5
32767,31150,2098,-98,-28,78,23356,22646,-820,-135,-43,-29,8472,6484,-8078,-18,27,9
32767,31830,1914,-48,-12,68,23224,22638,-812,-94,-38,-3,8662,6680,-8080,21,12,8
32767,32138,1768,-48,0,74,23310,22812,-882,-4,-66,20,8810,6930,-8122,18,12,4
32767,31928,1862,-68,-3,84,23496,23002,-920,-7,-64,10,8768,6970,-8098,-9,34,0
32767,31876,1878,-181,-31,43,23594,23176,-1008,-28,-53,10,8556,6922,-8088,-55,50,-9
32767,31672,1908,-204,-35,52,23732,23228,-922,-59,-39,0,8538,6772,-8088,-97,42,-19
32767,31084,2034,-178,-24,48,23820,23188,-832,-89,-34,-26,8658,6706,-8082,-105,39,-21
32767,31566,1888,-113,-32,38,23664,23090,-720,-117,-19,-44,8558,6536,-8024,-106,52,-25
32767,31584,1856,-119,-24,32,23610,22952,-658,-113,-29,-35,8520,6318,-8032,-105,53,-29
32767,31878,1910,-92,-25,49,23566,23058,-650,-101,-24,-26,8656,6216,-8156,-78,41,-32
32767,31828,2082,-104,-14,62,23296,23038,-660,-81,-26,-11,8720,6290,-8122,-34,39,-34
32767,31902,1874,-121,-8,64,23112,22972,-558,-77,-54,-10,8690,6384,-8088,-7,40,-45
32767,31536,1628,-116,-7,77,23514,22874,-632,-88,-77,-27,8676,6642,-8092,13,41,-50
32767,31594,1606,-112,-17,92,23782,22758,-592,-103,-69,-39,8666,6816,-8106,28,42,-41
32767,31538,1670,-132,-44,61,23668,22758,-588,-115,-48,-44,8702,6806,-8104,13,40,-32
32767,31480,1884,-145,-55,55,23538,22732,-574,-86,-46,-48,8588,6790,-8006,-14,40,-52
32767,31724,2032,-127,-78,38,23486,22788,-488,-56,-49,-53,8564,6806,-7966,-34,36,-62
32767,32114,2044,-137,-85,29,23406,23052,-500,-19,-58,-38,8554,6818,-8050,-63,37,-52
32767,32136,2242,-182,-82,37,23470,22966,-620,-20,-69,-30,8616,6616,-8176,-97,42,-44
32767,31692,2246,-224,-68,41,23600,23030,-626,-16,-77,-38,8718,6514,-8038,-106,50,-57
32767,31156,2206,-188,-52,38,23606,23046,-774,-18,-69,-45,8622,6572,-7956,-110,57,-75
32767,31254,2056,-123,-37,20,23438,23012,-806,-22,-69,-47,8444,6600,-7884,-106,46,-63
32767,31590,1912,-118,-44,24,23324,22974,-784,-33,-72,-38,8470,6552,-7956,-95,26,-39
32767,31514,2012,-140,-55,19,23452,22848,-830,-36,-78,-34,8488,6368,-8130,-56,13,-31
32767,31452,2084,-130,-62,23,23528,22700,-852,-37,-76,-43,8570,6318,-8136,-29,14,-42
32767,31536,2150,-98,-56,20,23522,22522,-844,-33,-68,-66,8584,6368,-8162,-21,9,-49
32767,31724,2228,-71,-42,7,23462,22572,-868,-27,-59,-79,8616,6514,-8224,-13,12,-34
32767,31602,2218,-71,-28,4,23358,22604,-692,-25,-49,-89,8542,6532,-8186,-6,13,-12
32767,31640,2086,-64,-18,-6,23300,22568,-622,-24,-38,-81,8514,6476,-8146,-10,11,-9
32767,31644,2096,-69,-26,-13,23388,22612,-424,-25,-47,-83,8612,6304,-8108,-25,6,-30
32767,31880,1958,-63,-31,-9,23394,22678,-688,33,-36,-57,8716,6308,-8174,-38,13,-46
32767,31622,1846,-66,-23,-11,23356,22626,-538,50,-59,-57,8696,6250,-8260,-34,30,-41
32767,31296,1794,-61,-16,-20,23516,22862,-570,50,-78,-104,8458,6322,-8156,-18,44,-27
32767,31202,1746,-61,-20,-39,23416,23076,-714,17,-60,-81,8438,6298,-7996,-13,34,-28
32767,31302,1630,-60,-37,-63,23700,22788,-582,-14,-65,-87,8454,6150,-8028,-19,19,-40
32767,31030,1650,-108,-55,-51,23756,22742,-724,-35,-48,-126,8524,6070,-7932,-10,2,-52
32767,30990,1788,-78,-55,-76,23488,22688,-714,-10,-38,-106,8526,6066,-8022,-2,3,-58
32767,31264,2116,13,-67,0,23286,22624,-704,58,-57,-72,8488,6154,-8164,26,8,-47
32767,31594,2080,9,-30,-46,23580,22860,-594,80,-75,-86,8486,6318,-8174,70,-1,-26
32767,31484,2074,-55,-25,-81,23776,23088,-850,82,-63,-86,8528,6484,-8188,86,-4,-17
32767,31290,2172,-31,-23,-62,23478,22946,-768,13,-51,-90,8562,6454,-8062,33,0,-37
32767,31636,2068,-48,-16,-99,23280,22902,-894,13,-50,-85,8568,6428,-7968,7,-9,-40
32767,31238,1806,-109,-19,-102,23322,22764,-742,15,-63,-41,8576,6414,-7932,12,-4,-28
32767,30876,1740,-88,-15,-89,23514,22654,-904,68,-78,-25,8638,6360,-8156,33,-8,-19
32767,31534,2098,12,-10,-73,23522,23098,-846,75,-74,-54,8656,6332,-8244,53,-10,-12
32767,32200,2074,26,-24,-81,23592,22936,-1074,38,-57,-32,8708,6292,-8254,41,-1,-12
32767,32062,2138,-48,-17,-95,23482,22794,-880,5,-48,-55,8638,6324,-8102,19,14,-9
32767,31736,1892,-76,-3,-154,23462,22756,-850,-12,-38,-52,8620,6314,-8030,10,12,-6
32767,31228,1834,-56,-15,-98,23376,22644,-734,9,-36,-23,8716,6312,-8088,28,6,-10
32767,31054,1930,20,-25,-38,23520,22668,-620,52,-55,-31,8644,6250,-8232,16,21,-15
32767,31888,2062,103,-22,-62,23552,22982,-558,68,-41,-23,8526,6176,-8254,20,28,-15
32767,32344,2012,117,-14,-70,23450,23014,-478,60,-35,3,8578,6206,-8236,43,27,-6
32767,32722,2098,-8,-17,-63,23322,23066,-498,78,-49,-4,8684,6338,-8188,49,33,-8
32767,31792,1812,-118,-11,-78,23546,22942,-374,67,-57,1,8702,6386,-8042,39,36,-16
32767,31256,1622,-43,-24,-88,23550,22904,-648,86,-63,13,8682,6332,-8010,22,39,-18
32767,31402,1650,36,-34,-65,23454,22998,-750,102,-67,18,8646,6196,-8098,6,44,-18
32767,31980,1734,63,-58,-41,23574,23146,-736,57,-57,22,8570,6112,-8126,18,53,-17
32767,31926,1922,-4,-57,-42,23622,23146,-774,36,-49,28,8482,6250,-8114,55,58,-7
32767,31738,2054,-27,-65,-35,23456,23072,-794,8,-42,14,8372,6422,-8032,70,43,5
32767,31772,2066,-7,-57,-49,23442,22898,-840,17,-46,0,8468,6488,-8038,63,24,14
32767,31952,2138,0,-70,-26,23532,22732,-836,18,-52,-5,8596,6454,-8042,65,22,26
32767,31558,2270,-3,-42,-26,23706,22736,-742,36,-44,16,8552,6398,-8138,69,36,38
32767,31718,2298,60,-25,-25,23656,22844,-734,50,-25,29,8480,6424,-8022,64,37,29
32767,32012,2238,92,-9,-22,23526,23002,-622,77,-22,38,8426,6500,-8022,51,25,17
32767,32204,2162,33,-4,-30,23538,23238,-642,108,-36,35,8582,6478,-8010,24,9,14
32767,31996,1942,-5,-8,-25,23578,23342,-454,102,-48,32,8654,6494,-8170,13,24,16
32767,31778,1944,-30,-15,-19,23720,23398,-482,71,-49,39,8650,6492,-8278,4,44,28
32767,31676,1974,-28,-14,-11,23554,23276,-540,35,-50,48,8716,6444,-8224,-6,51,33
32767,31484,1948,-37,-16,-25,23468,23128,-672,5,-64,43,8690,6386,-8084,-26,59,24
32767,31394,1966,5,-14,-23,23618,22986,-614,-11,-64,30,8494,6306,-7944,-47,57,13
32767,32010,1796,75,-18,-6,23704,22938,-628,-8,-52,21,8396,6270,-7952,-36,34,22
32767,32372,1872,25,-34,4,23568,22852,-800,2,-36,25,8538,6158,-7964,27,0,41
32767,31880,1970,-64,-42,5,23298,22824,-794,20,-40,37,8770,6174,-8242,103,3,63
32767,31458,2090,-41,-45,-13,23566,23034,-758,46,-54,37,8632,6420,-8124,147,35,84
32767,31650,2312,28,-36,-23,23648,23300,-788,40,-39,42,8508,6646,-7980,129,35,81
32767,32140,2354,57,-29,-24,23350,23430,-808,19,-29,39,8492,6836,-7988,93,19,73
32767,32362,2424,21,-19,-15,23488,23544,-914,-3,-44,35,8566,6894,-7902,52,11,71
32767,31926,2340,-21,-16,-9,23780,23562,-936,-8,-39,57,8608,6838,-7986,17,17,74
32767,31560,2142,-70,4,-10,23724,23482,-966,-19,-30,61,8546,6838,-7938,-27,25,70
32767,31252,1986,-51,1,-4,23566,23418,-966,-59,-34,41,8540,6642,-7886,-62,16,62
32767,31662,1884,-3,-5,-19,23594,23502,-1060,-58,-44,49,8592,6398,-7960,-72,6,43
32767,31912,1978,-16,-6,-2,23914,23434,-910,-69,-37,64,8602,6450,-8100,-65,22,27
32767,31794,2026,-12,-12,23,23822,23370,-1054,-33,-20,85,8370,6510,-8122,-55,33,36
32767,32000,1962,-24,-10,29,23366,23426,-808,-49,-22,74,8424,6584,-8076,-33,20,47
32767,31974,1968,-68,-6,35,23460,23590,-980,-44,-40,63,8646,6596,-8264,-22,10,52
32767,31826,1920,-35,-5,65,23532,23450,-754,-84,-38,64,8830,6602,-8248,-23,23,50
32767,32200,2020,2,9,81,23530,23258,-842,-105,-30,64,8810,6702,-8198,-16,37,55
32767,32568,2038,-36,-10,38,23546,23030,-788,-72,-33,87,8750,6710,-8264,-18,46,54
32767,32488,1988,-112,-9,55,23560,23040,-736,-44,-36,87,8664,6790,-8208,-39,48,46
32767,32356,1712,-136,-23,47,23590,23220,-846,-10,-36,69,8628,6828,-8164,-72,42,44
32767,31976,1710,-73,-24,95,23608,23536,-888,-35,-31,63,8728,6832,-8284,-74,42,54
32767,31930,1918,-26,-43,78,23386,23376,-724,-89,-19,56,8712,6806,-8302,-77,67,58
32767,32374,1970,-61,-50,115,23344,23054,-866,-92,-40,36,8582,6692,-8176,-103,90,48
32767,32674,2126,-116,-47,51,23390,22750,-818,-81,-50,39,8520,6536,-8052,-136,82,35
32767,32020,2068,-158,-39,20,23388,22766,-680,-65,-50,17,8594,6426,-8074,-137,67,37
32767,31642,2048,-73,-27,83,23422,22946,-840,-44,-42,-9,8524,6444,-8150,-102,62,46
32767,31500,1784,26,-34,147,23450,23222,-856,-58,-30,7,8482,6538,-8194,-61,57,53
32767,32328,2068,-6,-31,135,23292,23306,-850,-44,-21,37,8516,6712,-8094,-42,57,45
32767,32536,1956,-113,-37,78,23218,23204,-836,-80,-39,7,8560,6788,-8126,-62,55,35
32767,31526,1752,-197,-43,85,23598,23330,-956,-73,-46,-20,8570,6688,-8244,-92,48,28
32767,31506,2012,-190,-45,118,23526,23210,-904,-94,-39,-11,8652,6576,-8260,-95,55,28
32767,30904,2028,-112,-23,64,23414,23148,-940,-95,-37,-28,8430,6590,-8228,-88,70,30
32767,30584,1870,-29,-32,97,23578,23186,-1036,-93,-34,-28,8326,6440,-8082,-94,55,17
32767,31060,1836,-69,-34,88,23470,23114,-1002,-91,-27,-18,8378,6328,-8014,-87,25,-5
32767,31834,1798,-107,-44,84,23352,23108,-870,-71,-36,-19,8568,6350,-8088,-73,7,-17
32767,31822,1754,-157,-22,62,23526,23104,-882,-42,-54,-17,8590,6422,-8428,-39,22,-12
32767,31584,1956,-152,-21,57,23706,23198,-888,-20,-46,-14,8530,6586,-8442,-29,36,-16
32767,31690,1896,-130,-17,57,23486,23324,-882,-29,-40,-15,8458,6748,-8400,-45,26,-24
32767,31596,1870,-115,-12,46,23518,23462,-876,-67,-35,-16,8584,6744,-8270,-61,20,-34
32767,31756,1878,-116,-14,42,23724,23338,-782,-91,-37,-30,8718,6666,-8194,-76,23,-39
32767,31918,1800,-147,-18,45,23776,23194,-698,-116,-27,-42,8684,6450,-8248,-91,37,-33
32767,31800,1836,-159,-26,45,23578,22938,-638,-120,-24,-36,8700,6282,-8410,-81,42,-27
32767,31770,1904,-161,-29,43,23502,22774,-506,-105,-41,-40,8500,6254,-8366,-50,49,-27
32767,31664,1830,-141,-30,41,23630,22794,-500,-94,-46,-52,8468,6444,-8254,-22,43,-35
32767,31650,1790,-101,-24,39,23710,22798,-456,-54,-59,-57,8542,6540,-8230,-10,31,-27
32767,31946,1736,-64,-26,43,23742,22992,-570,-22,-61,-58,8642,6610,-8244,-7,33,-27
32767,32094,1876,-76,-29,45,23544,23076,-584,3,-69,-56,8622,6510,-8214,-5,43,-38
32767,32360,1854,-99,-40,42,23590,23058,-612,14,-89,-49,8558,6552,-8288,-5,48,-42
32767,32224,1870,-180,-43,35,23582,23248,-620,-2,-87,-39,8552,6626,-8140,-17,39,-36
32767,31416,1896,-186,-52,24,23638,23414,-738,-3,-73,-26,8622,6618,-8110,-26,33,-36
32767,31480,1930,-110,-48,21,23462,23350,-722,-27,-77,-34,8602,6644,-8044,-32,23,-51
32767,31724,2156,-71,-47,26,23474,23310,-866,-59,-77,-44,8702,6606,-8056,-38,14,-61
32767,32078,2260,-108,-53,26,23508,23056,-908,-73,-76,-44,8730,6556,-8182,-72,24,-50
32767,31710,2232,-187,-54,30,23488,22784,-802,-99,-71,-59,8620,6488,-8166,-80,35,-35
32767,31296,2140,-201,-54,24,23460,22608,-774,-94,-68,-87,8622,6418,-8186,-55,23,-26
32767,31342,2142,-147,-55,19,23492,22632,-840,-33,-77,-88,8608,6380,-8224,-25,8,-28
32767,31320,2284,-75,-50,13,23410,22604,-890,42,-83,-77,8492,6306,-8132,-18,14,-39
32767,31796,2098,32,-34,8,23444,22780,-648,64,-96,-104,8404,6356,-8138,-13,8,-36
32767,32548,2080,29,-29,22,23336,23110,-572,41,-76,-123,8404,6430,-8280,8,-6,-17
32767,32448,2068,-73,-27,23,23340,23214,-714,35,-71,-76,8598,6462,-8384,32,-11,-5
32767,31898,1986,-132,-31,19,23488,23140,-594,18,-73,-59,8634,6514,-8368,15,9,-22
32767,31546,1968,-111,-26,4,23722,22972,-620,10,-73,-107,8520,6530,-8274,-17,15,-35
32767,31440,1832,-68,-30,-12,23706,23128,-686,-30,-55,-139,8574,6426,-8376,-55,11,-34
32767,31712,1782,-88,-29,-46,23296,22968,-896,-11,-36,-108,8656,6248,-8332,-60,13,-26
32767,31066,1818,-81,-32,-39,23286,22888,-642,-41,-47,-120,8600,6200,-8326,-31,26,-23
32767,31158,1870,-13,-54,-1,23530,23102,-968,36,-44,-83,8432,6172,-8346,5,27,-20
32767,31512,1794,-31,-31,-111,23688,22872,-628,-3,-58,-102,8270,6142,-8180,29,18,-23
32767,30984,1648,-13,-40,-137,23796,23112,-924,-2,-46,-134,8184,6006,-8080,27,-7,-38
32767,31260,2002,50,-49,3,23358,23066,-818,-22,-28,-103,8374,6046,-8172,78,-45,-43
32767,32258,1904,50,-32,-92,23384,22806,-710,-27,-45,-90,8606,6352,-8296,140,-46,-25
32767,31944,1878,-29,-36,-67,23502,22806,-746,-25,-51,-105,8480,6632,-8264,148,-20,-8
32767,31718,1926,-122,-29,-92,23412,22784,-682,13,-52,-71,8380,6766,-8222,102,-5,-14
32767,31318,1810,-59,-28,-119,23554,22630,-674,67,-70,-55,8374,6586,-8180,35,-22,-34
32767,32276,1804,-30,-28,-139,23672,23208,-858,134,-69,-38,8644,6464,-8238,-14,-31,-54
32767,32278,2010,0,-26,-99,23486,23290,-776,124,-62,-15,8838,6396,-8346,-24,-10,-41
32767,31974,2024,-25,-17,-136,23598,23320,-838,70,-70,-36,8764,6380,-8262,-26,28,-21
32767,31538,1950,-49,-30,-51,23684,23310,-790,-15,-52,-49,8556,6372,-8112,-20,23,-18
32767,32310,1972,16,-21,-123,23682,23036,-646,-73,-37,-31,8644,6248,-8082,-14,0,-18
32767,32474,2102,-42,-34,-115,23552,22664,-616,-28,-35,-14,8766,6104,-8216,-8,-3,-26
32767,32128,2098,-117,-39,-118,23406,22540,-534,29,-54,-13,8650,6026,-8358,-1,21,-35
32767,31288,1978,-49,-34,-96,23700,22886,-500,69,-59,-12,8474,6104,-8172,45,30,-23
32767,31666,1936,31,-40,-31,23500,23212,-802,97,-35,14,8500,6254,-8204,101,18,-4
32767,31960,1864,69,-26,-2,23226,23252,-632,53,-48,20,8612,6384,-8206,129,7,7
32767,32514,2032,83,-13,-69,23482,23138,-702,4,-65,0,8708,6468,-8162,137,8,7
32767,32664,2082,2,-25,-70,23696,22888,-746,-31,-65,-7,8710,6562,-8040,89,26,-5
32767,32078,1974,-76,-19,-75,23440,22620,-764,-21,-58,-14,8618,6578,-8060,35,27,-9
32767,31858,2006,-50,-31,-60,23380,22526,-782,25,-72,-19,8606,6482,-8160,19,32,0
32767,31822,2004,5,-47,-7,23622,22812,-754,74,-70,-8,8542,6558,-8148,31,41,18
32767,31726,2062,16,-37,-17,23592,22964,-768,85,-30,29,8484,6600,-8148,7,50,27
32767,32086,2050,16,-35,-36,23414,23006,-654,73,-25,32,8436,6492,-8140,-16,42,15
32767,32520,2034,0,-36,-24,23472,23034,-656,76,-37,17,8598,6314,-8128,-14,22,0
32767,32298,2094,-82,-30,-29,23614,23124,-560,66,-44,14,8806,6266,-8176,-14,26,-5
32767,31586,2128,-95,-23,-27,23720,23172,-522,60,-38,23,8714,6282,-8250,-29,52,1
32767,31226,2026,-18,-14,-22,23538,23396,-488,73,-29,41,8530,6218,-8320,-13,61,14
32767,31506,2004,47,-13,-18,23434,23450,-386,78,-43,58,8446,6200,-8250,18,49,20
32767,31862,2096,21,-15,-27,23588,23362,-524,69,-58,56,8448,6264,-8180,34,31,16
32767,31988,1822,-27,-25,-24,23620,23268,-798,71,-78,49,8580,6288,-8108,38,23,10
32767,31832,1772,-29,-29,-19,23626,23356,-854,68,-82,50,8578,6268,-8062,50,21,11
32767,31946,1842,18,-42,-11,23834,23466,-1006,48,-73,39,8582,6278,-8140,76,15,17
32767,31944,2008,8,-42,-4,23718,23564,-1010,15,-39,30,8548,6332,-8096,93,8,23
32767,31664,2136,4,-40,-7,23446,23444,-948,-18,-23,39,8524,6350,-8082,101,0,26
32767,31970,2068,28,-39,-11,23448,23138,-890,-44,-31,30,8596,6552,-8110,126,-6,38
32767,32476,2160,4,-36,-7,23588,23114,-878,-19,-31,39,8618,6680,-8172,132,-5,58
32767,32248,2348,-35,-24,2,23502,23124,-882,25,-35,63,8628,6866,-8204,118,8,79
32767,31892,2408,-24,-10,3,23490,23410,-766,35,-41,50,8644,6802,-8320,77,22,83
32767,31974,2460,24,4,1,23872,23622,-998,51,-41,71,8602,6814,-8174,34,32,68
32767,32046,2242,51,21,-4,23922,23700,-964,9,-30,86,8536,6774,-8196,-3,37,54
32767,32352,1920,-7,18,-19,23812,23700,-990,-30,-14,67,8508,6798,-8140,-34,45,52
32767,32208,1644,-61,13,-16,23626,23474,-970,-82,-21,50,8608,6718,-8136,-55,47,63
32767,32060,1668,-69,-8,-16,23438,22902,-748,-115,-27,10,8680,6438,-8294,-60,49,62
32767,31842,1814,-68,-26,-26,23680,22820,-788,-76,-34,15,8606,6294,-8308,-53,66,49
32767,31758,1738,-38,-33,-11,23468,22668,-608,-26,-29,39,8450,6322,-8290,-57,71,34
32767,32130,1926,-5,-23,24,23110,22786,-588,9,-36,14,8426,6366,-8276,-48,57,35
32767,32372,1990,-15,-29,41,23438,23318,-568,48,-46,15,8620,6352,-8260,-20,48,46
32767,32434,1990,-75,-23,44,23690,23554,-512,46,-36,61,8698,6534,-8252,12,55,51
32767,32246,1816,-36,-18,67,23734,23780,-734,25,-27,78,8748,6686,-8174,23,56,54
32767,32342,1750,-28,-21,81,23346,23866,-816,-66,-32,68,8718,6826,-8330,32,48,54
32767,32206,1930,-54,-28,105,23642,23866,-550,-150,-41,25,8770,6950,-8398,10,64,55
32767,32090,1890,-97,-53,73,24146,23838,-1178,-158,-16,50,8704,6892,-8300,-37,85,50
32767,31486,1986,-143,-47,23,23242,23152,-948,-186,-2,79,8564,6746,-8134,-91,90,35
32767,31322,1924,-83,-66,40,23236,22982,-950,-156,-45,15,8382,6658,-8212,-114,91,33
32767,31696,2020,-15,-80,6,23644,23002,-1176,-82,-69,17,8156,6404,-8182,-107,77,42
32767,31760,2102,-72,-77,-12,23810,22884,-1160,-46,-52,42,8216,6220,-8048,-101,46,35
32767,31872,2110,-47,-67,55,23358,23006,-1006,-32,-34,9,8414,6200,-8004,-82,17,24
32767,32422,2228,20,-54,43,23300,23320,-922,-53,-40,-11,8512,6292,-8262,-31,0,28
32767,32394,2208,-8,-36,168,23376,23194,-816,-74,-31,2,8502,6714,-8416,38,-6,44
32767,32767,2262,-78,-42,94,23422,23208,-718,-89,-28,1,8596,7020,-8320,15,1,39
32767,32634,2232,-234,-25,41,23502,23246,-682,-77,-14,10,8624,7202,-8266,-68,7,14
32767,32138,1924,-221,-14,174,23634,23266,-722,-49,-14,31,8734,7114,-8530,-122,19,21
32767,31988,1996,-129,-20,59,23300,23230,-676,-74,-13,8,8800,6758,-8658,-146,34,32
32767,32040,2000,-195,-27,106,23566,23358,-776,-81,-28,-5,8748,6508,-8614,-179,63,20
32767,31448,1850,-126,-16,73,23828,23410,-654,-111,-21,7,8542,6404,-8306,-182,68,-2
32767,31432,1654,-85,-23,113,23500,23438,-616,-155,-8,-2,8490,6354,-8184,-125,57,0
32767,32026,1536,-133,-49,27,23326,23304,-772,-179,-13,-11,8500,6182,-8284,-102,54,-10
32767,31682,1572,-164,-57,14,23296,23130,-750,-166,-41,-9,8322,6022,-8226,-91,58,-10
32767,31588,1704,-137,-67,37,23468,23004,-858,-162,-41,-21,8250,6012,-8234,-27,38,-12
32767,31778,1956,-103,-59,55,23442,23096,-866,-154,-33,-10,8330,6336,-8228,44,11,-9
32767,32142,1966,-80,-58,73,23626,23110,-922,-148,-24,-1,8516,6726,-8254,70,-10,-2
32767,32068,2072,-93,-47,109,23574,22998,-958,-154,-10,-13,8642,6832,-8334,59,4,2
32767,32212,2150,-122,-62,53,23410,22960,-1078,-134,-15,-31,8642,6870,-8290,6,21,-18
32767,31782,2038,-157,-37,111,23582,23110,-936,-110,-26,-39,8492,6884,-8256,-58,18,-33
32767,32342,2078,-141,-43,98,23384,23254,-862,-121,-9,-30,8502,6862,-8276,-103,6,-38
32767,32104,2178,-192,-43,71,23352,23314,-966,-122,-20,-9,8510,6854,-8366,-131,9,-30
32767,32012,2260,-230,-47,84,23728,23306,-858,-129,-27,-10,8522,6624,-8390,-169,19,-33
32767,31828,2304,-250,-42,77,23854,23244,-834,-162,-8,-27,8524,6362,-8298,-174,18,-47
32767,31794,2146,-238,-27,69,23336,22980,-730,-193,4,-39,8490,6226,-8204,-157,17,-64
32767,32184,1942,-241,-21,82,23168,22680,-688,-159,-27,-54,8566,6268,-8214,-138,6,-70
32767,32004,1786,-275,-13,98,23532,22624,-556,-102,-61,-68,8558,6272,-8336,-112,14,-56
32767,31482,1720,-250,-26,106,23530,22600,-600,-47,-60,-47,8534,6140,-8446,-82,13,-50
32767,31150,1760,-186,-32,110,23622,22806,-672,-13,-62,-36,8578,6296,-8344,-31,2,-70
32767,31618,1872,-129,-41,87,23772,23036,-704,-5,-56,-41,8622,6358,-8260,-16,8,-88
32767,32316,1886,-164,-53,71,23614,23104,-756,-5,-61,-46,8572,6348,-8292,-45,23,-91
32767,32194,1962,-227,-51,74,23496,22970,-706,-7,-84,-66,8680,6344,-8326,-60,22,-76
32767,32212,2046,-246,-64,66,23588,22952,-552,-3,-101,-80,8620,6484,-8330,-42,31,-54
32767,31776,1948,-274,-68,55,23560,22898,-720,26,-94,-69,8576,6554,-8468,-27,34,-45
32767,31650,1964,-257,-88,55,23444,22892,-728,57,-89,-62,8642,6484,-8324,-40,33,-55
32767,31266,1980,-246,-85,44,23418,22920,-772,61,-89,-78,8706,6394,-8262,-68,38,-64
32767,30868,2108,-181,-72,26,23518,22756,-816,69,-91,-87,8572,6298,-8194,-81,53,-74
32767,31200,2242,-53,-55,30,23554,22620,-748,84,-100,-102,8472,6218,-8090,-76,41,-70
32767,31956,2176,-17,-45,18,23528,22918,-754,92,-92,-105,8582,6142,-8150,-43,11,-55
32767,32302,2050,-85,-39,20,23264,22844,-728,97,-76,-69,8800,6182,-8336,14,-1,-36
32767,31750,2130,-154,-48,21,23292,22946,-414,49,-96,-104,8896,6264,-8488,58,23,-19
32767,30984,2148,-151,-51,-1,23500,23250,-758,54,-74,-103,8558,6392,-8516,60,59,-16
32767,30792,2294,-50,-53,-23,23218,22574,-644,29,-80,-90,8248,6414,-8406,27,64,-23
32767,31900,2100,64,-55,-24,23636,22852,-694,61,-99,-133,8264,6256,-8274,4,28,-24
32767,32106,2028,-9,-37,-57,23518,22990,-824,72,-55,-65,8640,6160,-8318,14,0,-15
32767,31386,2014,-47,-37,-55,23366,23232,-792,53,-54,-89,8680,6082,-8458,47,25,3
32767,30818,1908,8,-28,-82,23396,23330,-816,25,-55,-93,8424,6074,-8368,70,44,8
32767,30452,1750,97,-36,-97,23410,23012,-772,39,-59,-79,8264,6122,-8290,62,29,-7
32767,31456,2106,130,-51,-37,23580,22876,-758,51,-78,-82,8270,6158,-8218,55,-6,-22
32767,32160,1926,138,-42,-200,23630,23120,-790,49,-74,-85,8376,6054,-8198,48,-15,-27
32767,32188,2120,9,-54,-93,23460,23038,-958,67,-58,-43,8428,6210,-8310,61,-6,-30
32767,31164,2104,10,-47,-99,23316,23020,-786,40,-75,-39,8386,6260,-8320,71,2,-14
32767,30836,1852,41,-23,-123,23612,23182,-738,39,-62,-43,8442,6212,-8322,76,-2,1
32767,31274,2118,78,-15,-62,23590,23060,-938,46,-50,-22,8538,6312,-8356,54,-6,-15
32767,32416,1974,156,-20,-143,23520,22866,-520,55,-72,-50,8514,6338,-8276,44,-6,-20
32767,32767,1868,16,-21,-135,23582,23044,-802,95,-68,-32,8550,6352,-8302,44,-6,-23
32767,31816,1952,-124,-34,-84,23414,23092,-774,131,-69,10,8634,6328,-8458,26,0,-21
32767,31624,1888,-114,-42,-92,23542,23312,-714,114,-69,-3,8652,6164,-8500,21,22,-10
32767,31386,1858,-11,-18,-104,23854,23704,-842,52,-42,-3,8586,6114,-8390,30,35,-7
32767,31430,1914,83,-16,-78,23660,23432,-750,-16,7,23,8570,6150,-8352,24,24,-16
32767,32430,2202,112,-7,-63,23256,22862,-766,-30,-8,15,8586,6152,-8248,37,14,-20
32767,32692,2178,45,-5,-113,23366,22650,-562,25,-56,-17,8634,6132,-8246,57,16,-17
32767,32432,1992,-44,-27,-83,23770,22842,-494,79,-58,17,8526,6160,-8400,63,24,-21
32767,31920,1980,-61,-25,-65,23854,23208,-516,130,-41,57,8584,6202,-8414,70,27,-14
32767,31592,1984,3,-28,-56,23604,23538,-580,118,-33,54,8638,6332,-8420,95,25,1
32767,31624,2036,37,-25,-52,23572,23604,-434,88,-45,43,8646,6436,-8358,90,44,-1
32767,31730,2076,142,-18,-38,23608,23468,-622,67,-55,29,8458,6400,-8236,69,52,-11
32767,32356,2216,211,-4,-40,23808,23358,-558,51,-66,18,8356,6360,-8148,48,46,-9
32767,32767,2118,18,-25,-57,23788,23240,-564,36,-65,23,8484,6336,-8158,9,39,-12
32767,32642,1904,-135,-43,-46,23670,23264,-656,35,-59,40,8618,6210,-8288,-10,39,-8
32767,31640,1830,-113,-47,-20,23338,23236,-682,44,-50,53,8656,6202,-8386,22,41,11
32767,31124,2068,5,-39,-5,23204,23142,-900,46,-61,42,8626,6198,-8498,34,59,23
32767,31388,2242,128,-23,-13,23316,23182,-896,37,-74,40,8438,6278,-8210,19,73,22
32767,32410,2300,167,-15,-15,23746,23268,-960,17,-68,46,8272,6316,-8062,5,46,20
32767,32767,2260,69,-22,-16,23890,23418,-1058,4,-36,58,8430,6268,-8198,27,8,41
32767,32752,2282,-80,-26,-9,23642,23432,-1234,-21,-14,65,8650,6300,-8336,78,0,75
32767,31574,2338,-75,-21,-1,23570,23524,-1098,-71,-13,48,8726,6344,-8410,121,22,96
32767,31534,2334,43,-7,-3,23574,23300,-996,-195,17,43,8610,6532,-8416,128,35,101
32767,32092,2448,109,-1,-22,23374,23032,-862,-263,42,50,8438,6594,-8152,85,21,101
32767,32767,2424,58,-5,-35,23258,22784,-782,-248,37,58,8428,6680,-8186,51,13,95
32767,32572,2258,-40,-3,-32,23660,22878,-602,-183,26,64,8388,6618,-8272,25,11,88
32767,32240,2196,-83,-6,-34,23806,22994,-660,-110,21,60,8480,6496,-8326,0,11,77
32767,31810,2108,-76,-3,-24,23510,23098,-392,-105,23,20,8562,6336,-8342,-27,21,52
32767,31684,2018,-23,12,-12,23534,23182,-650,-75,0,25,8552,6352,-8286,-61,37,27
32767,32280,1852,60,32,28,23412,22914,-578,-104,-15,32,8578,6410,-8242,-95,38,20
32767,32767,1694,45,20,54,23494,22984,-656,-63,-38,4,8554,6366,-8244,-101,28,31
32767,32616,1730,-52,0,46,23522,23146,-598,-78,-24,11,8780,6322,-8212,-103,26,9
32767,32312,1586,-153,-18,66,23566,23210,-656,-70,-13,24,8808,6456,-8106,-125,38,-39
32767,31992,1690,-162,-55,35,23434,23502,-714,-60,-26,21,8494,6394,-8122,-171,50,-81
32767,32002,1652,-140,-58,92,23460,23776,-756,-52,-33,28,8320,6210,-8218,-211,41,-68
32767,32238,1822,-145,-74,105,23448,23770,-982,-51,-48,58,8480,6052,-8366,-198,24,-32
32767,32190,1948,-184,-71,147,23682,23666,-744,-108,-62,35,8624,6276,-8528,-123,25,1
32767,31910,2132,-225,-90,65,24120,23946,-1078,-119,-42,28,8636,6452,-8270,-75,24,9
32767,31332,2334,-229,-75,94,23432,23678,-1080,-165,-6,79,8570,6470,-8258,-78,15,6
32767,31260,2498,-129,-72,38,23124,23358,-1072,-175,-21,52,8394,6182,-8198,-86,-5,-2
32767,31892,2506,-115,-54,36,23518,23210,-1164,-185,-47,26,8384,6136,-8160,-64,-7,2
32767,31612,2506,-115,-44,44,23928,23184,-1074,-155,-26,69,8306,6086,-8152,-52,-16,13
32767,31790,2170,-108,-32,43,23694,23034,-1064,-75,-2,102,8254,6138,-8098,-29,-46,23
32767,32186,2190,-109,-27,58,23424,23288,-898,-50,-3,65,8484,6252,-8236,9,-73,22
32767,32148,2352,-129,-23,77,23032,23520,-702,-37,-3,41,8692,6512,-8538,29,-62,28
32767,32546,2316,-135,-27,99,22994,23468,-870,-76,-2,20,8724,6830,-8516,0,-17,37
32767,32424,2374,-146,11,48,23134,23056,-764,-130,-14,28,8628,6912,-8314,-68,2,29
32767,32634,2112,-170,2,102,23496,22840,-776,-103,-19,21,8486,6852,-8282,-161,3,21
32767,32692,1888,-144,14,121,23546,22782,-816,-97,-10,12,8632,6596,-8420,-184,6,27
32767,32767,1850,-162,-3,64,23612,22812,-882,-87,-4,22,8872,6270,-8432,-179,27,25
32767,32314,1888,-248,-3,61,23604,22836,-852,-94,12,7,8842,6194,-8408,-187,59,12
32767,31670,1868,-223,-24,158,23468,22974,-876,-119,19,-1,8524,6172,-8428,-200,82,12
32767,32354,1620,-113,-11,116,23502,22900,-730,-131,13,-12,8240,6268,-8372,-167,72,38
32767,32638,1602,-67,-10,112,23216,22664,-662,-127,3,-38,8170,6310,-8494,-114,49,61
32767,32272,1622,-151,-43,141,23196,22702,-780,-79,-24,-33,8124,6298,-8386,-72,68,65
32767,32184,1894,-170,-56,-2,23444,22942,-762,-30,-43,-28,8278,6160,-8210,-62,58,33
32767,30966,2030,-147,-31,76,23432,23048,-918,-31,-36,-16,8458,6036,-8122,-73,53,21
32767,31604,2190,-92,-27,78,23262,23124,-1000,-53,-38,-7,8520,6008,-8134,-60,60,22
32767,31758,2200,-98,12,47,23370,23046,-1118,-72,-43,-28,8504,6136,-8094,-36,52,33
32767,32082,1990,-105,10,40,23566,23008,-1172,-81,-45,-40,8522,6346,-8092,-15,29,28
32767,31644,1894,-163,18,69,23636,22982,-1158,-97,-26,-43,8676,6574,-8094,-22,15,13
32767,31814,1760,-203,-4,51,23432,22934,-1248,-124,-5,-38,8782,6686,-8172,-70,19,-9
32767,31480,1794,-224,-15,53,23318,22854,-1160,-127,-10,-40,8732,6666,-8288,-116,34,-14
32767,31176,2102,-216,-27,36,23308,22710,-1060,-111,-34,-55,8508,6402,-8254,-181,44,-11
32767,31240,2118,-185,-37,37,23346,22570,-1030,-61,-57,-66,8418,6066,-8216,-184,29,-12
32767,31434,2296,-159,-25,35,23408,22502,-930,15,-83,-66,8512,5894,-8188,-138,10,-14
32767,31564,2296,-163,-11,35,23460,22878,-722,87,-92,-55,8562,5870,-8228,-87,0,-16
32767,31638,2158,-133,0,37,23652,23026,-764,73,-77,-41,8540,5902,-8282,-58,-3,-20
32767,31892,2030,-116,10,46,23448,23098,-848,67,-66,-38,8532,6010,-8382,-37,-6,-27
32767,31934,1918,-126,15,45,23420,23080,-602,63,-59,-62,8644,6116,-8366,-18,-9,-31
32767,31590,1688,-158,13,51,23542,23118,-686,86,-52,-81,8798,6268,-8340,0,6,-36
32767,31414,1540,-138,8,38,23408,23172,-604,102,-55,-77,8768,6334,-8276,-10,17,-51
32767,31894,1556,-110,-13,34,23278,23128,-620,111,-76,-61,8788,6288,-8290,-55,20,-78
32767,32250,1594,-153,-36,34,23236,22968,-764,128,-105,-73,8916,6090,-8422,-72,21,-74
32767,31902,1618,-232,-59,38,23466,22862,-678,108,-136,-114,8988,6060,-8614,-61,57,-59
32767,31030,1838,-233,-66,36,23710,23190,-948,142,-116,-68,8728,6016,-8534,-34,101,-46
32767,30786,1914,-143,-63,23,23704,23010,-960,126,-88,-27,8434,6048,-8344,-13,110,-47
32767,31034,1928,-31,-55,1,23566,23152,-958,108,-78,-67,8272,5940,-8122,-4,76,-48
32767,31874,1964,30,-50,-28,23254,23456,-1068,78,-66,-73,8374,5908,-7976,22,33,-48
32767,32146,2046,11,-59,-18,23192,23196,-992,50,-87,-43,8442,5982,-8204,82,27,-36
32767,31796,1902,-14,-57,-14,23386,22828,-802,42,-116,-86,8194,6294,-8476,162,39,-7
32767,31202,1980,-13,-51,-23,23566,22880,-940,57,-101,-96,8188,6534,-8354,170,28,9
32767,31348,2010,54,-60,-30,23330,22458,-940,51,-89,-67,8550,6538,-8362,139,2,11
32767,31912,2012,76,-56,-41,23504,22870,-1212,143,-89,-84,8820,6512,-8422,103,9,10
32767,32004,2284,72,-48,-52,23226,22912,-996,154,-88,-62,8784,6388,-8546,85,46,15
32767,31690,2476,52,-22,-91,23424,23102,-716,123,-106,-82,8584,6312,-8396,61,67,17
32767,31612,2456,22,4,-128,23502,23224,-944,85,-73,-99,8402,6230,-8188,23,63,19
32767,31584,2192,145,-1,-62,23246,23030,-744,8,-69,-100,8304,6068,-8096,8,34,19
32767,32286,1700,178,16,-103,23118,22862,-942,43,-66,-87,8560,6024,-8258,57,-16,36
32767,32518,1666,138,-2,-102,23092,22724,-788,54,-88,-76,8816,6070,-8480,91,-14,42
32767,32472,1852,37,-16,-51,23654,23004,-824,81,-78,-91,8782,6210,-8626,101,19,31
32767,32404,1998,-34,-36,-90,23414,23292,-828,114,-60,-42,8610,6268,-8482,85,50,22
32767,31338,1960,-75,-39,-107,23428,23172,-910,74,-65,-50,8400,6266,-8412,47,55,15
32767,30700,1950,3,-25,-51,23474,23490,-896,49,-64,-71,8366,6168,-8260,18,40,16
32767,31192,1662,154,-19,-129,23362,23378,-960,38,-60,-42,8560,5864,-8220,36,12,13
32767,31946,1856,108,-20,-43,23430,23314,-986,37,-60,-28,8680,5940,-8432,111,4,10
32767,32374,1878,69,-46,-121,23664,23462,-854,40,-59,-32,8466,6096,-8390,145,30,9
32767,32132,1790,-78,-52,-144,23670,23650,-1072,23,-39,-32,8316,6268,-8272,115,25,-4
32767,31130,1642,-48,-59,-156,23382,23304,-998,10,-46,-15,8334,6284,-8316,76,3,-16
32767,31462,1840,20,-54,-133,23576,23100,-1018,28,-63,-40,8474,6230,-8318,88,-9,-19
32767,32080,2114,66,-40,-96,23602,23198,-998,55,-64,-26,8508,6200,-8404,103,5,-19
32767,32388,2124,69,-32,-144,23466,23328,-776,71,-48,22,8462,6190,-8336,73,19,-28
32767,32302,1798,16,-24,-107,23510,23360,-670,51,-40,22,8524,6226,-8346,58,12,-38
32767,32116,1918,45,-10,-114,23442,23372,-808,27,-20,30,8582,6302,-8336,72,2,-36
32767,31594,1814,25,-24,-45,23290,23230,-720,13,-27,32,8586,6478,-8404,73,15,-32
32767,31962,1876,23,-15,-62,23566,23262,-688,-6,-26,31,8522,6458,-8442,46,26,-42
32767,32216,1872,119,-15,-65,23572,23308,-706,3,-4,57,8424,6428,-8454,30,34,-37
32767,32767,2012,114,-23,-23,23412,23376,-696,7,-12,62,8504,6278,-8464,24,24,-30
32767,32767,1894,-7,-20,-56,23542,23426,-568,10,-35,58,8650,6288,-8616,23,25,-21
32767,32692,1726,-96,-43,-19,23734,23434,-748,16,-44,59,8744,6274,-8598,46,40,-9
32767,31874,1884,-79,-33,-26,23866,23550,-684,38,-41,63,8724,6332,-8504,74,56,2
32767,31876,1934,-2,-32,-44,23708,23632,-954,18,-41,49,8670,6352,-8418,71,68,2
32767,32174,1930,54,-26,-40,23450,23634,-996,-7,-37,38,8442,6368,-8282,30,77,-8
32767,32700,2018,76,-37,-30,23482,23400,-1018,-40,-39,45,8282,6268,-8142,16,60,-10
32767,32767,1916,10,-45,-22,23542,23260,-1122,-65,-36,44,8322,6246,-8196,33,49,-4
32767,32370,1938,-40,-49,-10,23578,23278,-1150,-53,-30,46,8412,6250,-8230,54,46,2
32767,32000,2020,-13,-39,-3,23620,23450,-1024,-54,-24,59,8356,6288,-8224,59,36,1
32767,32096,2078,26,-28,-9,23398,23514,-1040,-68,-11,82,8396,6342,-8194,48,29,-3
32767,32338,2074,31,-22,-6,23450,23602,-1114,-76,-16,69,8500,6412,-8344,34,26,2
32767,32767,2154,-36,-29,-1,23382,23408,-940,-117,-24,67,8594,6492,-8472,23,27,14
32767,32646,2206,-141,-24,16,23658,23250,-832,-124,-21,44,8582,6488,-8462,11,33,25
32767,31896,2312,-131,-7,29,23566,23042,-952,-99,-10,51,8512,6468,-8500,-12,36,35
32767,31796,2274,-30,3,43,23550,22984,-896,-80,-12,66,8444,6464,-8502,-4,31,52
32767,32476,2180,28,24,34,23526,23102,-676,-72,-16,48,8522,6596,-8434,19,25,66
32767,32546,2228,-33,13,15,23352,23290,-674,-92,7,38,8662,6570,-8372,10,25,62
32767,32300,2038,-88,12,4,23138,23322,-738,-102,4,67,8734,6480,-8434,-16,27,34
32767,32104,1944,-76,8,-2,23452,23300,-724,-81,-17,61,8606,6364,-8444,-58,48,17
32767,32198,1790,-48,-1,4,23670,23432,-944,-34,-13,67,8472,6286,-8554,-98,60,17
32767,32434,1746,-61,-6,55,23520,23438,-880,-59,-26,57,8426,6178,-8480,-121,56,24
32767,32767,1634,-96,-14,66,23708,23680,-988,-87,-29,9,8680,6264,-8466,-105,40,25
32767,32684,1864,-99,-7,94,23526,23676,-1142,-138,-6,7,8674,6270,-8526,-78,49,29
32767,32767,1798,-115,-33,79,23024,23260,-884,-217,-4,6,8578,6366,-8690,-73,70,22
32767,32206,1790,-138,-23,108,23242,22878,-922,-207,-28,-20,8424,6362,-8516,-93,79,16
32767,32112,2084,-127,-43,105,23590,22754,-886,-168,-25,-18,8368,6360,-8376,-110,71,11
32767,31790,1734,-130,-34,82,23386,22850,-976,-85,-7,18,8380,6194,-8220,-103,45,12
32767,31744,1850,-60,-35,92,23334,23332,-958,-35,-25,21,8494,5976,-8208,-70,18,16
32767,31862,1844,-61,-45,124,23566,23708,-1144,-31,-30,25,8428,5982,-8310,-23,14,23
32767,32500,1938,-129,-66,83,23468,23866,-1020,-99,-17,8,8172,6156,-8214,-4,-1,5
32767,32310,2104,-204,-55,68,23410,23764,-1066,-173,-15,-5,8210,6320,-8258,-20,-30,-10
32767,31828,2248,-183,-52,83,23470,23416,-1152,-210,-20,-3,8470,6482,-8528,-37,-37,0
32767,31698,2072,-121,-30,144,23586,23060,-1180,-218,-16,-9,8740,6600,-8588,-47,-16,17
32767,32300,2066,-65,11,183,23554,22878,-1192,-221,-8,-19,8688,6690,-8612,-56,8,31
32767,32210,2300,-57,-5,81,23568,22930,-1234,-192,5,-24,8470,6556,-8398,-89,18,17
32767,32452,2036,-118,-10,104,23306,22768,-1194,-179,13,-25,8482,6508,-8278,-122,4,-10
32767,32248,1860,-223,-17,49,23064,22890,-824,-214,-5,-78,8592,6268,-8432,-164,-2,-16
32767,31772,1994,-277,-34,29,23328,23150,-1210,-185,-10,-88,8484,6038,-8422,-181,18,-10
32767,31222,1920,-235,-28,31,23092,23016,-858,-148,-36,-48,8286,5924,-8356,-188,21,-10
32767,31654,1844,-107,-21,43,23082,22832,-618,-123,-77,-74,8316,5838,-8280,-142,-19,-6
32767,32464,1802,-72,-17,58,23444,23230,-776,-35,-78,-48,8538,5954,-8436,-72,-52,-7
32767,32666,1994,-144,-15,100,23466,23282,-838,1,-67,34,8698,6176,-8578,-28,-27,-10
32767,32032,1882,-182,-14,96,23556,23394,-1026,-28,-58,6,8520,6452,-8530,-29,3,-12
32767,32272,1814,-203,-25,56,23536,23378,-1022,-110,-44,-21,8516,6486,-8426,-76,0,-18
32767,32040,1834,-214,-18,64,23624,23024,-998,-180,-34,-26,8642,6200,-8392,-129,-7,-14
32767,32178,1876,-171,-20,74,23624,22674,-770,-205,-16,-51,8688,6136,-8348,-136,3,-6
32767,32210,1884,-175,-19,86,23454,22534,-798,-179,1,-42,8544,6132,-8328,-134,8,-4
32767,32502,1720,-214,-38,82,23148,22280,-740,-92,-7,-5,8426,6100,-8342,-143,-2,-14
32767,32742,1568,-278,-48,173,23136,22438,-782,-3,-39,-12,8590,6110,-8474,-135,-16,-17
32767,31998,1624,-334,-64,164,23340,22996,-838,35,-49,-35,8676,6012,-8426,-134,-1,-28
32767,31664,1546,-400,-100,259,23396,23160,-872,-8,-41,-30,8632,5960,-8442,-128,18,-49
32767,31052,1550,-366,-89,280,23354,23260,-950,-61,-38,-44,8562,6008,-8512,-96,26,-60
32767,30690,2102,-207,-85,82,23304,23154,-992,-96,-45,-58,8414,6056,-8250,-44,52,-40
32767,31630,2332,-91,-78,80,23354,23016,-860,-128,-52,-53,8256,6102,-8160,-40,50,-27
32767,32552,2348,-11,-29,57,23404,22866,-938,-122,-42,-31,8286,6016,-8242,-37,22,-15
32767,32767,2138,-36,-16,47,23384,22636,-992,-95,-48,-16,8574,6048,-8174,0,-9,-12
32767,32767,1890,-136,-3,39,23418,22512,-956,-47,-68,-34,8844,6242,-8274,15,-1,-20
32767,31976,1778,-179,-10,35,23506,22678,-886,-3,-80,-57,8798,6468,-8218,-16,35,-27
32767,31702,1766,-180,-32,27,23472,22916,-1032,29,-73,-48,8566,6462,-8196,-73,56,-24
32767,31728,1710,-197,-50,19,23396,23064,-926,17,-74,-37,8368,6258,-8250,-124,40,-27
32767,31592,1740,-167,-57,27,23388,23136,-850,-13,-57,-29,8418,5924,-8310,-134,21,-41
32767,31752,2062,-92,-62,41,23292,23130,-878,-56,-35,-17,8494,5754,-8324,-109,22,-44
32767,31920,2110,-63,-58,46,23378,22780,-740,-88,-43,-32,8518,5764,-8262,-88,38,-47
32767,31780,2062,-98,-45,46,23546,22572,-596,-63,-48,-56,8390,5748,-8252,-73,37,-54
32767,31890,1960,-98,-43,52,23492,22554,-770,-19,-46,-49,8404,5774,-8166,-50,17,-47
32767,31786,1912,-115,-41,48,23200,22760,-778,40,-51,-22,8548,5756,-8354,-13,-3,-33
32767,32002,1878,-123,-54,36,23410,23008,-634,23,-64,-13,8704,5948,-8288,18,9,-34
32767,32132,2008,-151,-50,16,23684,23070,-634,-18,-45,-1,8574,6084,-8354,14,26,-52
32767,32282,1944,-170,-48,10,23592,22880,-624,-55,-20,-10,8620,6062,-8456,-23,23,-57
32767,31848,1886,-154,-40,24,23314,22706,-556,-32,1,-22,8752,6088,-8558,-21,29,-38
32767,31614,1932,-114,-35,17,23094,22510,-558,38,-8,-2,8744,6058,-8448,-18,60,-29
32767,31632,1866,-114,-34,0,23370,23076,-548,118,-77,1,8524,6016,-8254,-43,77,-33
32767,31758,1774,-82,-42,-9,23402,23302,-748,85,-73,20,8386,5834,-8194,-73,70,-42
32767,31956,1804,-66,-51,-28,23376,23322,-1042,32,-66,35,8338,5674,-8190,-67,54,-40
32767,32286,1786,-49,-66,-29,23344,23044,-1204,-18,-71,22,8408,5682,-8348,-40,42,-30
32767,32476,1818,-75,-71,-18,23360,22824,-1302,-35,-76,6,8490,5810,-8454,-6,38,-18
32767,31874,1908,-129,-73,-2,23518,22770,-1290,-33,-63,7,8494,5970,-8398,19,40,-4
32767,31238,1936,-72,-63,7,23376,22826,-1306,-13,-55,13,8502,6044,-8382,22,50,0
32767,31786,2060,36,-52,0,23354,22710,-1120,6,-55,5,8526,5972,-8276,1,38,-10
32767,32454,2238,16,-49,-4,23454,22452,-884,47,-63,4,8524,5824,-8250,-35,34,-22
32767,32522,2198,-72,-55,-9,23344,22458,-774,126,-67,3,8376,5942,-8294,-52,30,-18
32767,32076,2108,-103,-56,3,23104,22434,-616,220,-85,21,8150,6136,-8180,-38,17,18
32767,31592,2066,-75,-54,22,23330,22784,-550,317,-129,71,8174,6064,-8202,3,-15,60
32767,31532,1952,-19,-48,28,23692,23182,-486,347,-131,102,8424,5850,-8358,38,-50,65
32767,31764,2080,46,-31,35,23730,23588,-824,296,-110,87,8722,5604,-8500,45,-37,49
32767,32056,2546,123,-7,54,23812,23992,-836,128,-90,44,8604,5680,-8456,36,2,34
32767,32767,2696,80,13,25,24428,23992,-1102,-13,-54,11,8454,5908,-8336,33,0,37
32767,32767,2524,-63,30,11,23964,23750,-1078,-124,10,4,8672,6056,-8374,33,-24,61
32767,32226,2142,-145,35,1,23336,23330,-926,-174,22,9,8828,6050,-8448,21,-16,74
32767,31528,1824,-101,44,-3,23184,23138,-816,-152,-9,10,8742,5958,-8464,8,12,63
32767,31770,1598,-4,48,-10,23274,23292,-736,-111,-21,21,8688,6002,-8532,-15,29,38
32767,32540,1560,-11,29,-8,23034,23482,-834,-98,-35,31,8870,6056,-8474,-34,31,22
32767,32312,1494,-105,0,-5,23108,23300,-718,-114,-65,24,8856,6096,-8490,-30,49,28
32767,31460,1664,-118,-27,-13,23464,22848,-944,-127,-79,-9,8474,5930,-8370,-3,77,52
32767,31082,1834,7,-25,-17,23298,22626,-892,-130,-70,-11,8204,5634,-8256,23,37,56
32767,31642,1870,151,-29,-25,23220,22486,-920,-79,-58,-7,8256,5254,-8078,72,-18,57
32767,31634,2088,191,-14,-37,23064,22640,-994,-18,-56,-6,8568,5208,-8058,153,-28,44
32767,31904,2226,312,0,-45,23008,22904,-1082,0,-57,1,8482,5704,-8094,246,-13,49
32767,32626,2320,378,27,-51,23524,23200,-910,14,-70,-2,8326,6312,-8024,287,-15,72
32767,32767,2222,305,39,-43,23880,23514,-954,-27,-50,-21,8500,6748,-7932,261,-50,81
32767,32767,1896,90,26,-33,23284,23550,-996,-78,-23,-13,8842,7090,-8150,171,-53,74
32767,32682,1504,-103,-32,25,22824,23338,-958,-148,-57,-21,8986,7246,-8266,9,-2,53
32767,32084,1528,-116,-59,22,23450,23214,-1004,-169,-70,-35,8826,7130,-8446,-124,45,37
32767,32334,1718,-70,-99,19,23544,23088,-1028,-175,-49,-22,8420,6788,-8492,-273,87,14
32767,32767,1860,-64,-93,9,23528,22898,-1190,-158,-35,-16,8270,6260,-8536,-376,92,-5
32767,32767,2286,-141,-89,6,23710,22862,-1146,-126,-28,-17,8348,5888,-8372,-378,76,2
32767,32576,2388,-255,-75,-7,23732,22944,-974,-135,-14,-28,8516,5586,-8372,-306,64,21
32767,31344,2228,-265,-43,-16,23390,22954,-1012,-139,-1,-40,8410,5416,-8326,-221,67,43
32767,31020,2124,-118,-6,-28,23142,22886,-810,-121,-17,-47,8238,5316,-8330,-134,59,51
32767,31878,1918,-10,3,-19,23394,22796,-788,-107,-32,-40,8026,5332,-8318,-3,2,30
32767,32282,1758,-73,5,11,23456,22776,-752,-74,-30,-20,8206,5412,-8304,82,-32,13
32767,31944,1658,-129,0,27,23294,22670,-764,-70,-33,-27,8574,5702,-8392,134,-45,-6
32767,31832,1714,-124,-6,33,23122,22584,-860,-62,-44,-47,8704,6334,-8218,142,-33,-13
32767,32138,1622,-152,-25,21,23316,22556,-842,-65,-60,-69,8598,6830,-8398,100,-9,7
32767,32082,1742,-148,-29,30,23690,22634,-802,-88,-38,-75,8434,6892,-8450,11,19,25
32767,32134,1870,-123,-25,34,23698,22664,-712,-110,2,-55,8424,6620,-8358,-114,22,-3
32767,32228,1886,-131,-7,36,23156,22526,-808,-107,-4,-69,8590,6250,-8358,-219,32,-46
32767,32684,1922,-157,-11,40,23166,22442,-654,-93,-27,-95,8632,6044,-8354,-242,66,-68
32767,32278,1638,-270,8,40,23426,22256,-742,-44,-60,-109,8626,5978,-8300,-210,75,-51
32767,31792,1374,-249,10,41,23494,22212,-574,-14,-87,-134,8578,5862,-8320,-176,61,-27
32767,31922,1426,-181,-2,36,23594,22410,-590,21,-81,-130,8548,5676,-8386,-136,55,-17
32767,32292,1472,-167,-37,39,23404,22514,-762,73,-67,-100,8564,5590,-8432,-70,48,-27
32767,31986,1648,-234,-60,38,23254,22610,-758,92,-82,-113,8570,5674,-8436,-9,53,-48
32767,31522,1842,-246,-72,29,23456,22696,-834,86,-83,-154,8460,5852,-8320,11,61,-50
32767,31522,1898,-170,-61,17,23358,22652,-474,40,-68,-186,8330,5888,-8184,7,52,-41
32767,32028,1908,-103,-55,18,23468,22444,-758,39,-53,-150,8424,5852,-8338,16,27,-37
32767,31788,1994,-126,-47,16,23236,22292,-376,37,-33,-157,8642,6046,-8282,59,29,-66
32767,31406,1970,-150,-41,10,23122,22680,-694,100,-36,-146,8636,6240,-8058,10,56,-88
32767,31116,1682,-129,-33,6,23022,23034,-818,215,-57,-65,8478,6192,-8028,-87,60,-92
32767,31808,1644,-89,-40,-4,23316,23052,-860,220,-92,-47,8504,5890,-8114,-139,41,-85
32767,32248,1726,-143,-60,9,23866,23542,-834,163,-98,-94,8610,5792,-8370,-109,21,-84
32767,31736,1866,-232,-75,15,23850,23798,-1202,80,-57,-70,8802,5802,-8606,-65,24,-84
32767,30862,2010,-238,-71,4,23304,23410,-1246,-29,-37,-43,8848,5780,-8628,-46,49,-78
32767,30400,2200,-156,-61,-27,23682,23024,-1394,-63,-44,-56,8580,5640,-8462,-59,79,-70
32767,30560,2114,-61,-54,-57,23454,22702,-1162,-49,-19,-35,8092,5530,-8288,-53,48,-65
32767,31594,2102,70,-54,-60,23378,22484,-886,-34,-40,-34,8144,5420,-8276,30,-16,-49
32767,31700,1802,24,-44,-91,23142,22554,-984,56,-44,-13,8508,5472,-8402,133,-56,-28
32767,31374,1874,-57,-43,-97,23048,22478,-904,96,-68,5,8688,5728,-8454,199,-40,-6
32767,31078,1962,-83,-51,-191,23184,22474,-962,135,-89,-17,8446,5790,-8410,185,-6,4
32767,30922,1866,-55,-52,-183,23462,22674,-890,134,-92,-22,8124,5940,-8200,133,-15,-14
32767,31024,1818,82,-52,-215,23448,22796,-798,58,-53,-9,8048,5922,-8088,97,-58,-19
32767,32128,1766,52,-22,-170,23074,22580,-818,11,-29,2,8464,5810,-8202,97,-90,-15
32767,32412,2290,52,-19,-151,22932,22470,-730,-2,-50,-9,8722,5876,-8584,118,-59,-8
32767,32767,2412,93,5,-159,23108,22320,-626,11,-60,-13,8760,6006,-8588,111,-18,2
32767,32704,2022,48,33,-177,23436,22418,-688,91,-53,22,8596,6242,-8388,51,3,-9
32767,32066,2016,67,45,-100,23298,22774,-758,157,-51,22,8684,6320,-8264,-8,-10,-19
32767,32767,1650,90,31,-112,23336,23214,-886,156,-61,15,8806,6170,-8238,-25,-8,-17
32767,32767,1694,18,1,-45,23540,23484,-932,112,-57,24,8948,6000,-8578,-23,22,-13
32767,32682,1626,-88,-22,-38,23644,23412,-890,57,-46,30,8796,5896,-8634,-43,65,1
32767,32328,1554,-69,-27,-63,23668,23316,-810,52,-49,20,8638,5718,-8562,-61,81,16
32767,32140,1658,-59,-55,-58,23654,23258,-798,75,-44,20,8506,5544,-8372,-44,74,10
32767,31952,1798,-11,-73,-39,23482,23230,-884,91,-52,39,8480,5464,-8350,8,66,7
32767,31758,1930,29,-73,-36,23398,23246,-826,86,-72,64,8542,5558,-8364,75,64,7
32767,31710,1948,30,-66,-50,23364,23208,-752,54,-75,79,8540,5606,-8290,95,75,8
32767,31414,1934,33,-44,-64,23340,23080,-888,21,-75,85,8332,5604,-8008,64,81,9
32767,31452,1716,90,-42,-74,23374,22960,-932,21,-72,79,8282,5490,-7924,54,48,-1
32767,32116,1690,113,-54,-58,23700,23000,-1028,28,-57,61,8414,5444,-8056,98,19,-11
32767,32158,1952,38,-67,-38,23682,23136,-962,-4,-12,42,8436,5710,-8284,131,20,-19
32767,31400,2056,-47,-59,-19,23398,23314,-942,-45,29,42,8270,6072,-8232,86,45,-23
32767,31108,2094,54,-35,-7,23072,23336,-846,-71,37,59,8222,6094,-8324,44,35,-23
32767,32114,2028,126,-21,-13,23300,23226,-906,-82,-13,69,8512,6070,-8424,27,15,-9
32767,32436,2080,25,-5,-20,23530,23260,-864,-81,-26,66,8740,5980,-8456,15,26,5
32767,32154,2122,-9,-7,-15,23678,23228,-980,-86,-24,84,8638,5882,-8512,12,52,11
32767,32184,2098,-2,-9,-12,23554,23018,-970,-80,-19,90,8420,5942,-8464,29,63,27
32767,32194,2022,3,-9,-12,23418,23010,-948,-70,-32,61,8358,5948,-8536,64,49,63
32767,32166,1898,10,-13,-16,23684,23014,-1118,-78,-40,52,8566,5896,-8438,93,33,95
32767,32192,1970,41,-16,-27,23772,22932,-1052,-71,-19,68,8770,5778,-8330,106,31,86
32767,32756,2122,64,-18,-42,23096,22592,-902,-88,-22,55,8698,5906,-8326,102,43,54
32767,32767,2184,33,-9,-40,23210,22792,-826,-49,-64,27,8480,6054,-8250,75,56,42
32767,32474,2134,-9,2,-22,23512,22796,-786,14,-57,81,8204,6208,-8304,37,64,53
32767,32116,2046,-32,14,-2,23420,22830,-698,55,-46,75,8120,6216,-8292,-11,53,55
32767,31898,1824,-15,14,12,23368,23338,-966,94,-46,63,8250,6356,-8186,-47,37,47
32767,31778,1382,-2,-10,18,23360,23684,-854,75,-47,87,8424,6354,-8134,-88,35,45
32767,32086,1376,-37,-37,18,23138,23676,-776,-33,-44,64,8586,6130,-8344,-126,43,40
32767,32198,1504,-65,-58,36,23342,23666,-984,-112,-47,54,8672,5868,-8528,-160,56,25
32767,32288,1940,-62,-59,61,23634,23258,-900,-174,-33,75,8640,5800,-8576,-167,81,19
32767,32504,2198,-61,-48,62,23718,23294,-1156,-151,-7,68,8428,5906,-8558,-154,85,30
32767,32180,2220,-49,-18,113,23132,23230,-1084,-164,-5,61,8504,6014,-8440,-129,65,44
32767,32320,2116,-28,-13,117,23014,23130,-1114,-166,-26,35,8674,5868,-8476,-94,48,59
32767,32388,2102,-90,-18,97,23366,22980,-1106,-179,-44,10,8748,5726,-8482,-70,61,64
32767,31876,1976,-131,-34,76,23582,22882,-996,-173,-36,4,8682,5662,-8402,-55,61,57
32767,31732,1628,-91,-52,92,23220,22744,-1246,-143,-14,20,8588,5724,-8586,-18,46,63
32767,31728,1838,-102,-71,98,22932,22596,-858,-113,-35,12,8484,5616,-8360,15,36,67
32767,31600,2208,-178,-78,38,23508,22832,-1026,-60,-45,-9,8292,5918,-8374,22,45,48
32767,31170,1972,-46,-59,108,23566,23098,-1060,-63,-19,22,8138,6106,-8366,24,23,59
32767,32160,1946,24,-54,110,23242,23268,-982,-73,-2,33,8200,6116,-8322,57,-17,76
32767,31860,1904,7,-40,103,23130,23344,-942,-117,-20,12,8510,6108,-8428,61,-29,63
32767,32376,1858,4,-39,124,23294,23190,-984,-134,-33,-19,8638,6192,-8474,38,-8,46
32767,32767,2140,-55,-41,60,23502,22926,-930,-146,-36,-35,8494,6228,-8300,-12,19,19
32767,32730,2206,-168,-36,95,23514,22660,-964,-109,-27,-33,8322,6390,-8316,-80,27,1
32767,32146,2002,-133,-14,79,23534,22614,-880,-49,-34,-47,8306,6352,-8368,-127,12,8
32767,32488,1722,-73,-6,127,23414,22898,-844,25,-50,-47,8574,6290,-8634,-113,2,34
32767,32614,1794,-163,-9,105,23400,22950,-774,52,-75,-45,8780,6206,-8670,-121,21,22
32767,32094,1844,-274,-38,126,23590,23156,-706,27,-82,-49,8668,5998,-8608,-158,58,-6
32767,31532,1914,-308,-35,86,23688,23318,-734,-16,-55,-30,8472,5862,-8438,-190,78,-29
32767,31490,1868,-255,-38,54,23406,23254,-804,-41,-40,-18,8258,5744,-8348,-173,58,-25
32767,31500,1670,-191,-24,68,23188,22840,-802,-57,-64,-46,8394,5474,-8390,-114,29,-8
32767,31852,1882,-157,-35,57,23434,22582,-762,-32,-82,-50,8518,5342,-8368,-35,25,-15
32767,31444,1826,-158,-34,66,23636,22600,-802,41,-91,-58,8464,5574,-8328,20,36,-31
32767,31882,1678,-121,-38,75,23600,22822,-868,96,-85,-55,8414,5996,-8388,40,17,-49
32767,32346,1544,-144,-35,70,23408,23250,-1000,120,-78,-37,8506,6216,-8558,29,7,-52
32767,32282,1962,-216,-46,77,23382,23554,-844,85,-82,-38,8628,6324,-8600,1,28,-55
32767,31870,1976,-273,-60,66,23690,23670,-878,7,-73,-54,8616,6330,-8606,-43,67,-58
32767,31078,1856,-256,-48,60,23668,23320,-834,-70,-53,-44,8448,6194,-8476,-79,76,-59
32767,31052,1760,-130,-36,51,23476,23104,-798,-93,-41,-53,8510,5962,-8478,-94,57,-55
32767,31596,1762,-52,-33,43,23386,22942,-768,-57,-53,-53,8718,5786,-8506,-73,52,-40
32767,32118,1960,-75,-44,39,23438,22856,-788,-11,-78,-45,8736,5658,-8538,-25,67,-25
32767,32002,2076,-125,-54,28,23504,22828,-692,57,-93,-48,8478,5658,-8338,15,78,-35
32767,31386,2122,-86,-50,16,23734,22976,-604,79,-100,-48,8162,5814,-8254,14,49,-54
32767,31966,2086,8,-42,6,23754,23182,-688,77,-77,-50,8178,5856,-8372,20,13,-46
32767,32700,2028,-2,-47,15,23352,23196,-780,57,-69,-57,8428,5832,-8484,50,-9,-26
32767,32636,2128,-122,-47,20,23266,23204,-824,62,-96,-58,8652,5920,-8720,79,1,-22
32767,31634,2066,-192,-50,22,23640,23056,-738,69,-117,-60,8612,6072,-8752,61,29,-36
32767,31130,2184,-124,-37,14,23710,23072,-758,76,-115,-70,8456,6146,-8602,18,43,-38
32767,31108,2064,-14,-20,3,23770,23128,-932,79,-94,-55,8418,6042,-8430,-9,34,-24
32767,31576,1880,70,-14,-8,23704,22928,-992,91,-84,-42,8514,5800,-8512,5,22,-8
32767,32436,1946,92,-16,-14,23180,22788,-712,52,-92,-116,8502,5690,-8450,22,19,-22
32767,32767,1960,-51,-32,-32,23228,23258,-804,49,-86,-120,8496,5744,-8534,33,16,-34
32767,32170,1938,-124,-40,-21,23340,23020,-812,61,-78,-40,8356,5852,-8548,36,16,-23
32767,31746,1954,-48,-41,-14,23354,22748,-600,70,-104,-90,8332,6026,-8572,37,5,-2
32767,32326,1980,7,-49,-15,23526,23302,-1100,108,-93,-70,8554,6116,-8590,33,-4,13
32767,32708,1988,-52,-52,-13,23370,23068,-982,47,-74,-11,8702,6072,-8570,31,3,12
32767,32228,2146,-129,-47,-23,23380,23042,-684,15,-81,-84,8714,5994,-8640,25,31,9
32767,31602,2140,-92,-44,-23,23406,23224,-1052,13,-66,-90,8478,6022,-8504,6,53,11
32767,31550,2180,-8,-29,-32,23102,22740,-690,-46,-65,-69,8168,5972,-8390,-16,31,22
32767,32154,1826,62,-31,-54,23418,22688,-934,49,-83,-76,8314,5760,-8456,10,-2,31
32767,32004,1924,39,-29,-60,23492,22658,-820,61,-90,-72,8614,5706,-8672,58,-16,35
32767,32126,2298,70,-32,-36,23728,23246,-1066,94,-44,-59,8664,5794,-8682,88,3,39
32767,32272,2234,2,-33,-62,23334,23352,-898,43,-34,-59,8502,5984,-8628,81,34,47
32767,31742,2298,-13,-28,-55,23172,23248,-890,40,-48,-76,8330,5996,-8496,54,29,48
32767,31894,1924,32,-25,-71,23280,23104,-860,44,-69,-72,8294,6136,-8396,64,-6,45
32767,31808,1826,103,-22,-81,23472,23020,-726,44,-75,-51,8520,6064,-8478,99,-25,54
32767,32342,1708,28,-57,-102,23694,23104,-828,100,-65,-29,8582,5922,-8332,50,14,34
32767,31188,1912,-61,-50,-19,23616,23362,-966,123,-53,-17,8302,5710,-8416,10,28,20
32767,32512,2088,79,-55,-137,23550,23572,-1004,109,-61,-16,8304,5610,-8396,30,14,21
32767,32234,1928,65,-29,-187,23598,23714,-950,109,-65,-4,8464,5806,-8446,65,-9,15
32767,31488,2050,81,-26,26,23548,23682,-984,63,-64,5,8524,6038,-8484,67,-7,7
32767,32767,1908,111,-34,-69,23332,23522,-1024,41,-62,13,8474,6078,-8398,62,3,0
32767,32767,1682,-78,-35,-135,23474,23228,-1042,0,-76,-2,8414,6186,-8506,39,7,-11
32767,31174,1772,-149,-36,-14,23822,23058,-1026,-17,-77,-20,8464,5972,-8570,-9,18,-15
32767,31616,1728,-48,-40,-135,23790,22910,-920,-6,-46,-28,8510,5706,-8490,-9,19,-31
32767,31668,2082,79,-2,-91,23454,22934,-820,-1,-15,-14,8450,5756,-8414,29,22,-30
32767,31890,1988,124,-24,-82,23154,23072,-724,55,-23,24,8234,5832,-8408,41,12,-25
32767,32520,1594,41,-34,15,23204,23244,-612,102,-48,26,8454,5860,-8422,61,-21,-16
32767,32767,1726,-87,-41,-126,23446,23444,-580,100,-59,28,8614,5950,-8700,85,-20,-13
32767,32138,1780,-144,-62,-63,23712,23494,-548,67,-58,35,8702,6000,-8776,95,8,-12
32767,31622,2208,-63,-50,-101,23758,23514,-604,35,-40,26,8506,6026,-8604,59,46,-25
32767,32106,2132,65,-36,-102,23672,23442,-676,9,-26,26,8326,5980,-8346,39,38,-39
32767,32767,2026,103,-10,-68,23614,23252,-606,6,-34,43,8490,5992,-8460,56,-4,-17
32767,32767,1902,54,-13,-52,23490,23230,-610,30,-37,47,8770,5984,-8642,94,-4,10
32767,32767,1910,13,-26,-42,23504,23470,-668,59,-67,62,8760,6092,-8712,102,39,11
32767,32578,1930,-3,-28,-32,23730,23652,-752,39,-66,65,8480,6222,-8638,62,76,-6
32767,32606,2000,38,-27,-28,23614,23596,-948,-1,-59,64,8408,6278,-8602,24,67,-18
32767,32767,1998,61,-22,-26,23618,23594,-962,-50,-57,56,8630,6224,-8636,1,56,-26
32767,32554,1978,35,-17,-30,23718,23416,-1012,-66,-46,48,8694,6150,-8482,-30,76,-30
32767,32092,1942,19,-16,-30,23674,23236,-970,-71,-34,45,8464,5982,-8436,-53,101,-18
32767,32166,1702,43,-29,-30,23662,23314,-964,-48,-24,52,8222,5724,-8392,-41,78,-6
32767,32650,1566,4,-56,-25,23722,23452,-882,-14,-21,76,8310,5590,-8390,6,48,-19
32767,32510,1906,-60,-82,-12,23450,23656,-840,-6,-21,71,8388,5632,-8626,47,48,-32
32767,32096,2140,-47,-76,-9,23600,23876,-898,-63,-28,65,8400,5796,-8626,63,66,-25
32767,32148,2316,8,-51,-14,23610,23624,-992,-100,-10,70,8256,5954,-8498,62,73,-8
32767,32506,2410,46,-30,-14,23394,23368,-938,-147,-4,51,8272,6102,-8340,65,48,13
32767,32650,2234,12,-19,-11,23636,23232,-1012,-108,-12,56,8402,6150,-8362,77,9,29
32767,32458,2078,-33,-18,0,23734,23254,-968,-37,-20,93,8614,6104,-8380,88,-7,36
32767,32338,2180,-22,-19,11,23512,23488,-932,-24,-30,92,8636,6128,-8604,61,23,30
32767,32396,2186,7,-15,16,23440,23540,-958,-21,-50,65,8490,6194,-8552,25,50,23
32767,32738,2420,13,3,23,23880,23506,-930,-74,-48,31,8444,6252,-8568,-4,46,21
32767,32767,2326,-14,14,23,23714,23328,-980,-79,-18,27,8516,6256,-8544,-36,37,19
32767,32752,2218,-92,15,24,23264,22928,-730,-95,-21,12,8512,6186,-8482,-63,41,17
32767,32324,2062,-115,20,28,23460,22950,-834,-43,-41,-14,8582,6074,-8522,-80,51,18
32767,32240,1756,-88,15,38,23594,23202,-634,-1,-37,9,8536,5996,-8608,-92,59,20
32767,32518,1766,-60,8,43,23376,23542,-740,16,-22,30,8450,5870,-8566,-87,60,17
32767,32618,1750,-75,-2,57,23314,23838,-780,10,-26,45,8378,5826,-8696,-66,48,8
32767,32708,1664,-71,-10,65,23390,23906,-896,-23,-36,50,8466,5800,-8742,-34,40,12
32767,32767,1888,-58,-29,77,23478,23824,-974,-107,-26,37,8482,5888,-8728,-20,46,13
32767,32664,2040,-77,-27,73,23416,23674,-1116,-157,-22,37,8388,6004,-8718,-39,67,10
32767,32767,2018,-115,-29,77,23538,23694,-1140,-151,-36,49,8276,6010,-8602,-65,63,9
32767,32340,1824,-119,-29,65,23758,23690,-1324,-108,-27,61,8404,5930,-8560,-70,38,8
32767,32220,1900,-108,-26,119,23638,23596,-1056,-157,-36,34,8710,5850,-8598,-51,35,10
32767,32658,1850,-51,-27,96,23834,23496,-1102,-148,-24,17,8754,5942,-8784,-32,51,14
32767,32626,1950,-41,-11,166,23784,23288,-1164,-150,-5,23,8646,6026,-8904,-27,74,15
32767,32767,1990,-97,-32,142,23374,23024,-882,-120,-20,4,8456,6184,-8804,-42,83,2
32767,31798,2002,-194,-48,92,23346,23046,-848,-77,-39,-26,8402,6272,-8598,-80,74,-14
32767,31704,1836,-159,-34,103,23546,23254,-770,-42,-42,-8,8436,6120,-8606,-99,63,-2
32767,31974,1810,-51,-53,38,23446,23358,-788,-44,-38,11,8404,5700,-8612,-85,59,9
32767,31982,1938,-46,-57,28,23278,23510,-848,-46,-35,15,8342,5496,-8616,-45,57,7
32767,32098,2032,-44,-67,44,23380,23500,-750,-54,-51,4,8156,5584,-8490,-26,45,-4
32767,32248,2134,-37,-63,38,23504,23324,-798,-52,-55,-14,8082,5700,-8492,-3,10,-11
32767,32767,2070,-78,-61,58,23702,23356,-928,-37,-59,-17,8238,5828,-8570,25,-16,-13
32767,32767,2170,-154,-57,62,23766,23422,-962,-31,-45,-11,8556,6026,-8716,21,-5,-16
32767,32332,2094,-162,-35,100,23570,23510,-826,-34,-41,-6,8548,6162,-8746,-13,21,-28
32767,32758,1990,-89,-19,114,23450,23634,-960,-62,-48,-12,8452,6190,-8834,-67,34,-52
32767,32767,1876,-109,-7,141,23518,23562,-930,-75,-55,-13,8554,6082,-9020,-120,40,-69
32767,32767,1804,-188,4,210,23796,23340,-1046,-115,-32,-17,8744,6112,-8990,-129,47,-67
32767,32730,1894,-247,20,197,23666,23210,-1042,-86,-21,-10,8736,6058,-8880,-132,84,-57
32767,32460,1766,-249,-21,69,23472,23188,-904,-51,-41,-20,8494,5870,-8734,-154,108,-51
32767,32390,1626,-214,-34,79,23604,23366,-824,-14,-53,-36,8292,5676,-8802,-146,90,-44
32767,32194,1726,-196,-38,99,23698,23478,-866,-3,-44,-30,8440,5374,-8934,-80,62,-30
32767,32042,1878,-197,-76,57,23424,23510,-846,13,-40,-13,8428,5376,-8784,-20,68,-47
32767,31802,1928,-143,-76,54,23488,23506,-906,28,-62,-19,8264,5512,-8512,1,66,-66
32767,32240,2034,-94,-77,40,23662,23506,-810,42,-74,-38,8284,5554,-8592,14,49,-67
32767,32570,2048,-107,-69,41,23932,23530,-868,23,-58,-37,8302,5634,-8750,38,33,-53
32767,32628,2126,-140,-61,49,23810,23574,-854,4,-44,-35,8414,5742,-8878,52,37,-46
32767,32224,2194,-153,-51,56,23632,23530,-772,10,-46,-41,8408,5896,-8942,46,45,-52
32767,31876,2088,-115,-33,62,23408,23498,-762,40,-65,-38,8380,6058,-8864,9,54,-64
32767,31884,2044,-45,-13,57,23392,23444,-800,64,-92,-29,8436,5970,-8796,-57,47,-68
32767,32442,2016,8,-15,54,23558,23412,-690,85,-110,-28,8448,5716,-8906,-89,46,-63
32767,32767,1976,-78,-32,48,23824,23546,-836,90,-105,-28,8514,5548,-8906,-94,53,-72
32767,32767,2134,-172,-44,56,23836,23614,-822,72,-86,-31,8460,5494,-8844,-83,61,-87
32767,32146,2074,-176,-36,46,23538,23702,-938,49,-69,-33,8410,5508,-8870,-74,58,-86
32767,32260,1806,-131,-41,49,23426,23578,-806,38,-82,-19,8482,5418,-8956,-56,55,-69
32767,32370,1822,-103,-44,50,23748,23460,-712,28,-85,-14,8536,5418,-9116,-26,56,-60
32767,32380,1902,-93,-55,52,23804,23474,-762,34,-71,-22,8502,5506,-9036,2,60,-65
32767,32172,1930,-96,-61,44,23574,23594,-846,27,-51,-25,8392,5602,-8994,4,64,-74
32767,32432,1884,-82,-66,31,23250,23472,-874,32,-55,-23,8372,5470,-8998,11,59,-67
32767,32494,2126,-79,-66,28,23526,23312,-696,27,-91,-51,8426,5414,-9088,35,63,-54
32767,32266,2126,-57,-63,22,23776,23284,-816,52,-92,-73,8392,5452,-9020,53,70,-41
32767,32234,2020,-14,-51,6,23556,23246,-872,103,-80,-28,8358,5552,-8866,56,62,-38
32767,32550,2002,13,-46,-3,23618,23524,-734,102,-83,-48,8410,5642,-8850,55,42,-29
32767,32767,2024,-14,-62,-5,23718,23978,-1068,115,-71,-39,8470,5686,-9012,54,36,-14
32767,32724,2076,-74,-82,-1,23326,23826,-870,80,-68,-5,8430,5638,-9198,48,57,-3
32767,32308,2172,-71,-82,-7,23426,23478,-748,33,-104,-57,8396,5582,-9288,33,72,-7
32767,32192,2370,7,-63,-16,23538,23490,-912,61,-82,-54,8316,5492,-9018,1,76,-24
32767,32618,2310,92,-33,-28,23766,23510,-1002,63,-83,-61,8304,5430,-8864,-8,68,-20
32767,32767,2160,90,-27,-42,23700,23612,-962,48,-65,-71,8280,5402,-8918,10,58,2
32767,32767,2034,7,-40,-39,23478,23728,-1088,36,-50,-56,8390,5336,-9022,56,48,24
32767,32767,2006,-51,-56,-25,23522,23694,-960,25,-57,-37,8358,5380,-9076,75,45,14
32767,32318,2096,-26,-46,-31,23602,23600,-760,26,-65,-33,8300,5452,-9108,57,51,-6
32767,32722,2156,55,-47,-41,23782,23522,-906,9,-58,-47,8140,5588,-9026,30,51,-13
32767,32767,2096,38,-42,-39,23382,23560,-1074,72,-50,-34,8194,5576,-8988,21,40,-2
32767,32767,2104,-35,-47,-22,23478,23500,-1038,92,-79,-49,8486,5562,-9174,32,19,13
32767,32190,2136,-103,-51,-34,23868,23740,-1032,84,-83,-68,8586,5484,-9192,26,37,9
32767,31816,2236,-81,-50,-53,23548,23748,-1020,69,-53,-44,8404,5424,-9180,13,64,6
32767,31814,2192,40,-25,-50,23454,23574,-916,52,-67,-49,8164,5424,-9128,9,68,8
32767,32696,2086,165,-32,-75,23552,23754,-946,72,-73,-65,8114,5290,-8910,12,36,4
32767,32767,1978,75,-30,-73,23346,23734,-1046,75,-62,-42,8316,5288,-9026,29,5,2
32767,32767,2000,41,-42,-51,23592,23632,-754,64,-80,-39,8478,5400,-9226,68,8,9
32767,32760,2300,-4,-40,-53,24020,23828,-950,57,-56,-39,8498,5458,-9330,94,36,14
32767,32350,2230,-53,-47,-87,23684,23780,-932,22,-25,-19,8282,5622,-9152,53,58,5
32767,31612,2166,7,-21,-84,23344,23494,-888,-5,-36,-33,8220,5546,-8832,5,37,-7
32767,32122,2062,133,-16,-103,23428,23384,-918,48,-75,-53,8246,5364,-8836,8,10,-15
32767,32767,1940,117,-39,-33,23632,23386,-1026,86,-93,-44,8372,5286,-8978,39,-2,-13
32767,32767,2012,-47,-56,-132,23742,23478,-930,135,-93,-38,8378,5290,-9096,43,9,-14
32767,32767,2058,-140,-57,-91,23824,23822,-1018,150,-90,-34,8290,5376,-9276,34,17,-19
32767,32506,2124,-84,-55,-84,23756,23988,-1096,123,-73,-27,8338,5522,-9398,29,21,-22
32767,32366,2366,-1,-24,-44,23520,23842,-1074,101,-70,-34,8416,5636,-9288,32,28,-11
32767,32478,2278,57,-2,-65,23620,23748,-1114,104,-90,-62,8378,5604,-9030,9,37,-6
32767,32416,1978,48,1,-82,23950,23882,-792,91,-83,-64,8404,5312,-9064,-10,28,-17
32767,32767,1874,-3,-16,-125,23828,23890,-758,67,-27,-32,8452,5166,-9122,-2,22,-33
32767,32767,1966,-37,-26,-85,23356,23950,-748,66,-32,-7,8444,5124,-9152,30,29,-37
32767,32767,2166,-47,-36,-55,23420,23836,-702,62,-63,-9,8286,5306,-9154,50,41,-28
32767,32440,1980,-6,-26,-68,23662,23726,-730,85,-78,-14,8204,5496,-9280,57,38,-18
32767,32656,2000,65,-30,-31,23754,23736,-828,66,-75,-9,8300,5578,-9250,65,21,-13
32767,32767,2072,77,-20,-42,23738,23752,-934,73,-56,11,8554,5530,-9302,66,17,-13
32767,32767,2108,8,-21,-59,23562,23864,-986,81,-37,26,8662,5410,-9366,38,55,-25
32767,32584,2006,-37,-25,-83,23454,23996,-1024,88,-39,36,8384,5294,-9238,15,83,-29
32767,32532,1954,32,-31,-66,23708,24146,-970,63,-41,36,8142,5188,-9190,25,68,-23
32767,32666,1960,50,-32,-82,23914,24196,-1128,30,-31,34,8178,5138,-9214,63,37,-16
32767,32767,2034,24,-45,-74,23838,24114,-1030,12,-10,35,8402,5270,-9280,101,37,-13
32767,32767,2156,22,-42,-61,23786,24000,-960,-4,-13,33,8410,5354,-9130,99,57,-19
32767,32767,2092,11,-44,-77,23660,23988,-1018,-18,-14,33,8244,5422,-9032,60,65,-32
32767,32767,1872,-12,-36,-70,23660,23876,-886,-43,-38,47,8262,5572,-9108,25,46,-39
32767,32767,1882,16,-39,-55,23750,23846,-958,-43,-34,45,8488,5428,-9208,32,28,-26
32767,32767,1984,7,-41,-53,23820,23772,-1008,-18,-31,56,8604,5388,-9416,43,50,-27
32767,32344,2216,-27,-35,-41,23632,23788,-892,-7,-26,60,8508,5346,-9352,28,81,-36
32767,32142,2270,29,-21,-48,23802,24194,-822,12,-32,72,8360,5272,-9288,17,93,-41
32767,32718,2200,87,-12,-55,24000,24528,-1008,5,-6,108,8270,5176,-9154,22,83,-41
32767,32767,2022,61,-14,-60,23652,24636,-1026,-56,6,122,8312,5196,-9132,39,66,-36
32767,32767,1852,35,-23,-55,23504,24478,-906,-126,-21,87,8426,5216,-9338,81,59,-26
32767,32767,1912,31,-30,-60,23956,24324,-1080,-176,-33,49,8462,5226,-9490,123,67,-17
32767,32628,1936,21,-34,-75,23966,23930,-892,-211,-10,40,8362,5248,-9342,121,91,-12
32767,32384,1936,49,-33,-85,23720,23630,-1072,-166,5,66,8170,5388,-9014,71,84,-10
32767,32767,1792,124,-57,-70,23444,23572,-956,-111,-11,67,8124,5318,-9078,70,56,0
32767,32767,2140,87,-57,-44,23872,24102,-1242,-11,-12,77,8290,5350,-9344,96,34,7
32767,32767,2398,13,-65,-34,23584,24178,-1222,-35,-1,93,8492,5468,-9448,101,47,3
32767,32767,2426,-19,-52,-33,23414,24256,-1066,-74,-18,49,8362,5602,-9314,58,79,-3
32767,32488,2428,27,-28,-40,23702,24260,-994,-131,-25,38,8118,5604,-9184,-6,81,-14
32767,32767,2164,85,-16,-36,23790,24088,-1108,-140,-1,79,8068,5386,-9132,-34,51,-11
32767,32767,2128,78,-10,-24,23198,23784,-1056,-121,-3,77,8296,5248,-9304,-21,33,5
32767,32767,2044,42,-16,-13,23592,23974,-1248,-128,-23,36,8450,5148,-9358,5,45,6
32767,32767,2034,-22,-17,-7,23934,24044,-1334,-55,-5,75,8318,5270,-9376,12,67,5
32767,32767,2012,-30,-24,-2,23336,23672,-974,-172,4,16,8258,5334,-9314,17,63,17
32767,32767,1960,4,-16,1,23400,23682,-1132,-139,-18,-13,8360,5344,-9346,44,48,32
32767,32767,1934,-12,-21,9,23662,23564,-1112,-121,-20,13,8508,5352,-9452,55,45,43
32767,32767,1986,-39,-34,12,23530,23630,-906,-50,-27,-7,8610,5366,-9354,47,48,37
32767,32767,2274,-55,-37,24,23634,24086,-992,-32,-17,11,8468,5348,-9494,26,68,30
32767,32767,2292,-66,-46,9,23600,24082,-902,-43,-22,27,8296,5328,-9328,2,70,23
32767,32767,2232,-74,-28,34,23578,24044,-894,-58,-33,1,8176,5426,-9224,-11,38,26
32767,32767,2192,-53,-24,44,23720,24140,-934,-82,-39,-11,8336,5390,-9238,-6,23,33
32767,32767,1880,-35,-34,72,23938,24160,-916,-105,-28,-1,8320,5330,-9184,-7,31,29
32767,32767,1976,14,-17,102,23810,24086,-980,-116,-3,-5,8292,5470,-9256,-24,32,15
32767,32767,2032,13,0,137,23402,23960,-1064,-113,-5,-3,8296,5604,-9554,-36,27,16
32767,32767,2188,-93,-3,159,23422,23826,-996,-89,-41,-2,8248,5700,-9600,-53,26,24
32767,32767,2398,-218,-22,88,23604,23778,-1146,-95,-32,-18,8392,5794,-9512,-101,35,23
32767,32590,2208,-237,-16,129,23508,23734,-1336,-105,-22,-7,8434,5662,-9356,-145,48,19
32767,32767,2030,-171,-17,89,23506,23756,-1396,-84,-28,-8,8254,5392,-9352,-157,50,16
32767,32692,2028,-128,-6,96,23688,23786,-1244,-68,-34,-32,8292,5232,-9448,-150,40,19
32767,32767,1998,-136,-21,108,23594,23924,-1224,-78,-20,-35,8344,5146,-9532,-139,49,24
32767,32767,1962,-100,-13,126,23436,24010,-1192,-85,-19,-29,8410,5120,-9550,-104,50,28
32767,32767,2006,-125,-38,104,23268,23982,-1134,-77,-28,-35,8366,5136,-9456,-74,52,23
32767,32767,2004,-212,-43,111,23324,24092,-1012,-80,-49,-28,8204,5200,-9350,-79,53,11
32767,32767,2020,-181,-41,60,23790,24048,-1128,-75,-52,12,8104,5240,-9412,-84,43,0
32767,32767,2064,-101,-17,117,24010,23976,-1286,-83,-41,13,8182,5214,-9450,-48,24,-1
32767,32767,2152,-83,-28,130,24038,23874,-1158,-91,-27,-8,8372,5484,-9570,-43,28,-10
32767,32767,1920,-182,-17,145,23938,23824,-1068,-93,-31,-35,8438,5508,-9600,-78,39,-4
32767,32622,1926,-193,-27,83,23814,23712,-1074,-69,-30,-53,8498,5286,-9518,-94,44,-1
32767,32734,2024,-250,-49,74,23786,23766,-990,-32,-45,-47,8406,5206,-9450,-100,55,-21
32767,31988,1866,-243,-46,84,23778,23880,-990,8,-38,-25,8324,5134,-9444,-111,53,-42
32767,32172,2012,-145,-29,125,23662,23968,-1008,45,-53,-6,8214,5118,-9444,-84,47,-32
32767,32767,2192,-94,-39,35,23654,24086,-1072,60,-82,-28,8118,5102,-9400,-60,34,-18
32767,32767,2240,-130,-40,37,23768,24170,-998,27,-82,-27,8158,5066,-9416,-59,23,-20
32767,32767,2106,-155,-45,58,23704,24054,-986,-16,-64,-7,8208,5030,-9378,-46,2,-19
32767,32767,2154,-161,-37,64,23420,23806,-1000,-23,-65,-8,8358,5228,-9556,19,-5,-25
32767,32690,2180,-125,-21,71,23402,23650,-886,-48,-73,-31,8268,5554,-9598,24,7,-36
32767,32767,2186,-100,-5,66,23538,23580,-900,-61,-72,-37,8244,5764,-9474,-17,5,-35
32767,32767,2146,-151,-19,54,23518,23552,-992,-46,-60,-29,8410,5574,-9584,-63,-8,-16
32767,32767,2078,-209,-34,50,23378,23352,-938,-8,-78,-38,8402,5326,-9658,-95,5,-5
32767,32732,2172,-206,-32,54,23712,23442,-932,44,-103,-58,8426,5102,-9556,-109,19,-19
32767,32676,2210,-151,-27,47,23812,23650,-946,74,-86,-59,8284,5114,-9490,-118,22,-45
32767,32767,2042,-128,-17,56,23544,23800,-1152,64,-53,-44,8336,5050,-9442,-120,8,-63
32767,32767,1852,-142,-10,73,23350,24054,-980,42,-61,-46,8462,4932,-9602,-92,4,-52
32767,32766,1814,-165,-7,77,23572,24150,-954,-16,-59,-62,8388,4916,-9566,-60,23,-34
32767,32598,1778,-149,-23,72,23598,23918,-960,-46,-51,-59,8110,4856,-9486,-35,34,-37
32767,32564,1894,-117,-31,94,23444,23530,-1026,-36,-55,-63,8074,4890,-9452,-16,7,-58
32767,32767,1932,-68,-43,103,23542,23570,-1114,4,-71,-87,8368,4942,-9522,16,-20,-74
32767,32767,2164,-104,-27,80,23584,23830,-830,10,-64,-70,8580,5054,-9522,24,2,-79
32767,32767,2228,-138,-23,76,23778,24126,-1132,31,-53,-37,8534,5194,-9492,-1,38,-78
32767,32767,2100,-139,-3,72,23486,24082,-1134,28,-44,-25,8374,5290,-9520,-23,38,-59
32767,32767,1976,-144,2,63,23430,23964,-992,12,-63,-59,8374,5362,-9598,-14,24,-35
32767,32767,1814,-182,-9,46,23678,23878,-1126,4,-82,-82,8508,5458,-9674,-2,23,-33
32767,32418,1838,-180,-37,33,23814,23806,-1184,-8,-75,-83,8574,5462,-9670,-22,43,-30
32767,32390,2114,-116,-55,25,23700,23600,-1026,9,-69,-62,8492,5156,-9558,-56,58,-23
32767,32767,2110,-63,-69,8,23652,23730,-1116,62,-62,-61,8310,4942,-9688,-63,64,-23
32767,32767,2264,-68,-68,12,23356,23620,-1126,58,-67,-81,8340,4956,-9552,-26,58,-18
32767,32767,2220,-76,-70,8,23426,23722,-1058,75,-91,-102,8480,4954,-9540,15,56,2
32767,32767,2252,-69,-58,-2,23728,23712,-1018,99,-102,-76,8362,5004,-9348,16,72,16
32767,32767,2206,-5,-56,-20,23724,23772,-1036,78,-84,-74,8094,4962,-9438,16,65,1
32767,32767,2134,9,-51,-5,23490,23930,-1016,78,-69,-67,8118,5002,-9458,37,35,-15
32767,32767,2146,-49,-52,-5,23358,23918,-968,45,-63,-76,8320,5174,-9524,35,24,-25
32767,32560,2240,-98,-54,-8,23454,24044,-1008,27,-61,-77,8336,5160,-9464,-7,36,-35
32767,32722,2060,-94,-58,-4,23394,23610,-1088,47,-69,-41,8356,4962,-9514,-52,47,-43
32767,32540,2078,-87,-46,-3,23658,23406,-1002,61,-97,-78,8404,4722,-9622,-50,47,-33
32767,32308,2302,-71,-40,-12,23742,23668,-1066,84,-87,-93,8318,4744,-9618,-9,52,-18
32767,31974,2054,-21,-24,-17,23426,23654,-1140,76,-83,-58,8102,4766,-9608,18,55,-11
32767,32300,1956,84,-22,-34,23760,23760,-910,52,-85,-52,7978,4786,-9462,29,3,-20
32767,32767,1934,105,-40,-55,23854,23886,-1090,57,-44,-44,8304,4800,-9568,38,-25,-29
32767,32767,2016,-91,-60,-53,23344,23850,-856,59,-56,-37,8456,4946,-9746,43,-4,-28
32767,32504,2136,-154,-60,-15,23626,23902,-1044,87,-75,-48,8332,5014,-9758,45,20,-15
32767,32538,2168,-56,-44,-61,23816,23992,-916,76,-74,-28,8174,5070,-9662,47,16,-1
32767,32412,2250,47,-30,-87,23948,24142,-1022,41,-50,-12,8184,5094,-9524,25,8,-2
32767,32720,2188,51,-43,10,23644,24272,-1026,26,-18,-4,8310,4982,-9406,-20,-2,-16
32767,32767,2082,-71,-32,-91,23344,24246,-1008,-19,-29,-6,8328,4974,-9468,-36,-2,-29
32767,32767,1988,-82,-47,-50,23564,23882,-1140,-4,-42,-24,8422,4940,-9848,12,4,-3
32767,32767,2074,-100,-42,-32,23706,23666,-1162,10,-48,-27,8492,5054,-9832,29,23,15
32767,32756,2136,-91,-24,-60,23848,23760,-1230,28,-39,-5,8396,5048,-9686,4,41,3
32767,32767,2200,-19,-23,-76,23668,23822,-1192,34,-20,22,8334,5000,-9460,-27,39,-11
32767,32767,2118,42,-12,-81,23498,23936,-1132,17,-22,23,8252,4828,-9508,-15,23,-10
32767,32767,1984,17,-37,-87,23464,23866,-1238,24,-38,12,8342,4782,-9670,33,14,4
32767,32767,1920,-38,-33,-104,23466,23848,-1256,25,-51,0,8396,4750,-9706,71,16,18
32767,32422,1898,-60,-67,-64,23674,23794,-1250,23,-53,11,8490,4716,-9674,69,27,14
32767,32290,1994,-48,-42,-78,23774,23892,-1166,25,-39,30,8370,4784,-9570,60,38,6
32767,32248,1988,76,-44,-134,23632,23952,-1124,41,-35,22,8044,4906,-9386,68,35,4
32767,32767,1986,129,-38,-57,23550,23972,-1120,52,-49,22,8076,5016,-9324,86,1,6
32767,32767,1942,60,-58,-105,23742,24052,-1084,85,-58,35,8396,4996,-9402,84,-17,4
32767,32767,1940,-96,-53,-108,23890,24158,-1034,124,-56,44,8570,5012,-9574,75,8,-6
32767,32582,2136,-84,-51,-60,23622,24180,-1118,146,-64,44,8594,4972,-9798,57,45,-12
32767,32454,2192,1,-40,-105,23628,24318,-1104,140,-85,36,8450,5054,-9668,35,60,-15
32767,32518,2050,30,-29,-96,23944,24526,-984,99,-77,43,8412,4968,-9470,17,63,-16
32767,32767,2180,69,-18,-116,24026,24378,-1046,25,-41,62,8244,4746,-9304,-3,58,-29
32767,32767,2070,74,-22,-103,23774,24158,-904,-12,-32,60,8170,4606,-9344,3,26,-46
32767,32767,1844,30,-41,-64,23718,24252,-848,-18,-28,58,8268,4646,-9580,43,6,-32
32767,32767,1972,12,-38,-76,23566,24230,-882,0,-20,79,8310,4810,-9708,95,12,-19
32767,32767,2084,-16,-44,-46,23682,24232,-790,-47,-26,61,8404,5044,-9798,109,32,-18
32767,32554,2128,0,-32,-41,23702,24390,-1028,-42,-17,82,8352,5208,-9600,75,51,-28
32767,32524,2212,108,-11,-53,23472,24202,-988,-88,-20,96,8162,5250,-9404,20,49,-38
32767,32767,2158,171,-14,-53,23618,24120,-1074,-96,-32,68,8146,5114,-9438,-13,33,-33
32767,32767,2082,70,-33,-34,23632,24064,-1050,-79,-34,72,8180,4956,-9524,-14,27,-9
32767,32767,2004,-156,-44,-21,23586,23832,-1072,-79,-37,59,8420,4900,-9770,-1,42,-1
32767,32506,2008,-190,-44,-14,23652,24010,-1158,-27,-33,57,8414,4946,-9724,-5,62,-12
32767,32296,2086,19,-20,-33,23640,24110,-1058,-22,-37,67,8506,4886,-9590,-35,73,-23
32767,32767,2026,107,-10,-36,23686,24244,-1244,-5,-29,75,8394,4878,-9548,-68,67,-30
32767,32767,1984,73,-19,-34,23610,24404,-1160,-21,-29,64,8380,4756,-9576,-79,64,-22
32767,32767,1984,-64,-39,-13,23468,24510,-1188,-50,-21,60,8410,4526,-9694,-53,69,-4
32767,32767,1994,-145,-47,4,23494,24298,-1240,-96,-28,55,8334,4538,-9842,-7,79,2
32767,32258,2070,-75,-40,-9,23570,24048,-1208,-113,-35,25,8402,4616,-9740,17,77,-6
32767,32536,1998,29,-27,-15,23668,24010,-1212,-110,-29,12,8458,4776,-9620,19,73,-24
32767,32767,2094,85,-24,-13,23688,23904,-1318,-105,-8,31,8478,4846,-9622,33,74,-16
32767,32767,1978,-24,-54,1,23484,23708,-1298,-104,1,27,8458,4910,-9700,52,84,4
32767,32767,2070,-118,-71,12,23378,23770,-1268,-80,-15,4,8330,4918,-9850,58,104,22
32767,32767,2076,-99,-70,14,23684,23966,-1202,-47,-19,12,8224,5004,-9926,51,113,29
32767,32722,2090,4,-51,14,23620,24142,-1128,-61,-1,21,8272,5052,-9878,45,99,42
32767,32767,2198,119,-43,14,23536,24336,-1142,-47,-14,13,8434,5036,-9762,50,99,55
32767,32767,2348,121,-37,20,23652,24450,-1102,-79,-23,0,8470,5056,-9662,35,116,53
32767,32767,2202,76,-36,28,23748,24320,-1104,-81,-18,9,8254,5148,-9512,-20,116,35
32767,32767,2104,27,-36,30,23542,24122,-1050,-89,-31,-1,8120,5078,-9604,-42,95,47
32767,32767,1956,22,-48,51,23538,24078,-1078,-97,-39,-23,7932,4890,-9780,-50,97,68
32767,32767,2120,-15,-57,56,23592,24070,-1180,-106,-33,-13,7964,4896,-9764,-56,63,57
32767,32767,2264,4,-49,110,23576,24154,-1132,-117,-29,0,8292,4974,-9716,-50,28,34
32767,32767,2250,-23,-73,96,23798,24166,-1116,-112,-28,-6,8492,5096,-9768,-76,37,22
32767,32767,2458,-81,-34,120,23780,24144,-1098,-112,-23,-30,8370,5076,-9770,-111,65,25
32767,32767,2482,-70,-45,120,23622,24104,-1154,-130,-18,-36,8130,4968,-9854,-129,76,32
32767,32767,2226,-137,-36,97,23558,24042,-1138,-114,-26,-20,8110,4830,-9930,-117,50,35
32767,32767,2454,-162,-27,78,23648,23966,-1170,-97,-53,-21,8238,4816,-9958,-105,38,32
32767,32548,2328,-112,-23,104,23892,23996,-1086,-57,-69,-41,8330,4808,-9856,-91,42,34
32767,32767,2112,-71,-4,113,24054,24078,-1030,-31,-60,-42,8338,4800,-9826,-74,49,36
32767,32767,2158,-52,-8,58,23832,24208,-1156,-2,-40,-25,8096,4846,-9868,-65,53,41
32767,32767,2074,-54,-2,101,23536,24344,-1148,15,-51,-18,8038,4778,-9868,-52,41,43
32767,32767,2140,-53,-13,92,23482,24346,-1052,-3,-73,-11,8150,4936,-9954,-33,17,32
32767,32767,2176,-104,0,132,23640,24270,-1194,-27,-75,-17,8324,5034,-10090,-38,23,20
32767,32767,2204,-140,-16,86,23742,24082,-1322,-77,-54,-22,8228,5046,-10082,-73,56,7
32767,32767,2154,-168,-4,82,23612,23874,-1282,-83,-44,-40,8228,4988,-9890,-104,51,-9
32767,32767,2122,-170,-11,72,23554,23612,-1194,-40,-56,-48,8310,4942,-9802,-120,39,-23
32767,32767,1818,-177,-5,69,23434,23734,-1020,27,-70,-52,8416,4702,-9812,-128,27,-23
32767,32767,1884,-118,-19,45,23528,23874,-1170,64,-86,-51,8398,4362,-10000,-103,39,-23
32767,32767,1916,-129,-29,58,23618,24174,-1104,65,-74,-34,8230,4400,-10006,-60,47,-35
32767,32767,2102,-133,-21,87,23602,24240,-1236,53,-62,-29,8130,4576,-9958,-22,38,-47
32767,32767,1980,-109,-29,83,23486,24158,-1196,24,-72,-54,8096,4792,-9962,3,12,-50
32767,32767,2120,-132,-20,84,23652,23964,-1222,9,-77,-86,8306,4958,-10018,17,-3,-41
32767,32767,2198,-144,-30,71,23640,23822,-1142,37,-85,-96,8416,5072,-10056,1,19,-29
32767,32767,2154,-162,-23,73,23612,23702,-1116,104,-96,-100,8226,5014,-10038,-22,36,-25
32767,32767,2320,-137,-23,70,23642,23782,-1036,111,-119,-119,8102,4900,-9912,-45,27,-33
32767,32767,2296,-97,-11,70,23670,24290,-1052,128,-116,-115,8280,4826,-9768,-69,0,-53
32767,32767,2158,-87,-2,78,23488,24222,-1026,104,-103,-93,8294,4812,-9784,-82,-7,-73
32767,32767,2150,-135,0,75,23724,24236,-964,80,-111,-103,8302,4704,-9854,-83,5,-73
32767,32767,2150,-223,-3,66,23740,24188,-1190,82,-90,-96,8300,4748,-9916,-75,5,-51
32767,32767,1984,-246,-10,64,23694,24194,-1122,59,-79,-71,8376,4792,-9992,-58,8,-33
32767,32710,2124,-214,-21,54,23630,24202,-1140,70,-79,-67,8404,4788,-10004,-48,-2,-49
32767,32767,2064,-149,-24,48,23614,24374,-1086,44,-87,-91,8482,4706,-10104,-50,-6,-71
32767,32767,2318,-189,-19,50,23640,24356,-1284,21,-74,-76,8582,4738,-10142,-46,14,-58
32767,32767,2240,-206,-17,34,23588,24082,-1258,21,-80,-53,8320,4678,-9968,-37,46,-24
32767,32702,2138,-150,-13,19,23680,24112,-1196,22,-79,-75,8132,4676,-9794,-14,37,-2
32767,32767,1920,-64,-21,15,23594,24260,-1444,67,-71,-44,8154,4660,-9914,27,-15,4
32767,32767,1956,-46,-28,23,23590,24130,-1362,38,-74,-18,8480,4660,-10112,63,-38,0
32767,32767,2196,-62,-36,14,23840,24254,-1392,62,-65,-34,8592,4778,-10128,62,3,-10
32767,32767,2290,-89,-30,-4,23590,24404,-1416,40,-42,-23,8148,4954,-9976,-21,57,-20
32767,32767,2128,-68,-27,-7,23486,24338,-1308,28,-42,-17,8116,4830,-9804,-68,28,-21
32767,32767,1926,-99,-22,-8,23670,24224,-1254,19,-41,-12,8382,4610,-9922,-57,-4,-11
32767,32767,1828,-138,-36,-6,23738,24042,-1108,7,-36,-7,8582,4538,-10116,-26,7,-3
32767,32502,1876,-117,-40,-11,23922,24142,-1110,24,-21,3,8460,4490,-10136,-4,53,-3
32767,32626,2114,-42,-49,-18,23856,24242,-1012,22,-11,12,8098,4410,-10046,3,62,-13
32767,32767,2176,5,-35,-38,23762,24346,-878,3,-6,18,8012,4444,-9856,9,25,-26
32767,32767,2178,17,-37,-52,23676,24248,-826,0,-14,28,8146,4426,-9814,21,-14,-32
32767,32767,2068,-1,-43,-30,23678,24094,-834,18,-36,31,8444,4442,-10024,89,-7,-5
32767,32767,2058,-52,-30,-48,23808,24178,-800,61,-59,25,8402,4646,-10064,133,14,17
32767,32684,1994,-69,-35,-57,23856,24476,-872,89,-63,27,8326,4780,-10162,137,23,18
32767,32182,2018,1,-36,-93,23666,24640,-1078,77,-57,38,8276,4838,-10082,111,20,6
32767,32602,2016,80,-38,-83,23332,24616,-1098,25,-61,48,8284,4782,-9942,90,7,4
32767,32767,2280,68,-36,-188,23526,24482,-1308,-29,-69,58,8312,4608,-9826,77,14,5
32767,32767,2266,12,-56,-157,23770,24324,-1426,-58,-69,68,8108,4510,-9716,87,18,9
32767,32767,2160,34,-66,-171,23736,24116,-1498,-62,-57,62,8096,4500,-9802,104,-6,10
32767,32767,2156,-20,-52,-121,23946,24090,-1602,-21,-36,66,8264,4738,-9900,123,-25,9
32767,32767,2082,39,-31,-156,23998,24154,-1524,-12,-18,67,8358,4916,-9884,112,-15,3
32767,32767,2056,108,-19,-128,23864,24302,-1458,7,-3,53,8368,5018,-9912,85,-6,0
32767,32767,1936,101,-29,-134,23784,24408,-1344,20,-9,45,8376,4982,-9966,54,4,-4
32767,32767,2090,-34,-45,-59,23858,24500,-1210,30,-14,39,8384,4868,-9920,11,27,-9
32767,32767,2068,-105,-31,-103,23764,24450,-1094,20,-29,38,8276,4620,-9940,-8,40,-14
32767,32767,2072,-28,-29,-109,23742,24368,-794,13,-44,35,8252,4502,-9862,2,28,-17
32767,32767,1818,14,-21,-114,23996,24412,-866,17,-48,48,8360,4462,-9988,27,18,-22
32767,32767,1946,45,-11,-45,23746,24532,-734,34,-41,89,8448,4482,-9956,52,26,-21
32767,32767,1884,31,-22,-49,23920,24602,-942,13,-49,81,8248,4596,-9942,71,52,-20
32767,32767,1774,-32,-20,-47,23904,24806,-1052,7,-45,107,8260,4716,-9984,80,46,-22
32767,32767,1648,-27,-36,-40,23792,24684,-1146,-36,-30,129,8446,4730,-9944,74,45,-23
32767,32767,1730,-24,-38,-41,23560,24522,-982,-91,-44,104,8414,4758,-9876,56,69,-21
32767,32767,1888,11,-40,-30,24180,24724,-1396,-122,-42,81,8280,4720,-9786,31,93,-21
32767,32767,1936,56,-43,-33,23736,24618,-1306,-90,1,134,8204,4696,-9710,17,85,-15
32767,32767,1844,51,-45,-13,23580,24376,-1390,-97,-17,121,8248,4680,-9776,27,62,-5
32767,32767,1960,-6,-58,-12,23750,24598,-1592,-81,-28,100,8342,4748,-9886,36,52,1
32767,32767,2172,-63,-65,-11,23418,24476,-1400,-102,-17,93,8294,4934,-9982,19,57,19
32767,32767,2394,-51,-63,2,23716,24290,-1542,-95,-26,71,8200,4988,-9962,5,62,39
32767,32767,2532,1,-49,10,23748,24238,-1440,-66,-23,50,8188,4944,-9918,0,61,60
32767,32767,2544,13,-27,15,23374,24044,-1290,-69,-18,21,8058,4860,-9920,0,58,73
32767,32767,2500,13,-15,4,23234,24040,-1126,-12,-22,-2,8034,4696,-9838,2,48,74
32767,32767,2362,-6,-12,0,23450,24306,-1008,27,-37,-14,8254,4560,-9808,9,17,50
32767,32767,2320,-26,0,-3,23422,24508,-1278,40,-23,22,8560,4660,-9802,9,13,10
32767,32767,2278,-46,26,11,23484,24506,-1310,17,-33,38,8626,4746,-9962,-19,46,-3
32767,32767,2168,-67,39,28,23712,24498,-1376,-12,-33,7,8350,4730,-10150,-64,87,11
32767,32767,1890,-79,44,31,24022,24478,-1362,-40,-26,-7,8254,4776,-10054,-72,82,11
32767,32767,1592,-81,45,52,24028,24364,-1228,-74,-12,-20,8474,4770,-10070,-61,64,8
32767,32767,1460,-66,10,53,23864,24222,-1132,-30,-25,-43,8642,4726,-10132,-48,76,13
32767,32767,1534,-97,-19,58,23820,24350,-1058,6,-48,-43,8532,4710,-10244,-27,105,22
32767,32767,1656,-82,-48,57,23714,24562,-980,52,-69,-31,8406,4708,-10276,-9,117,26
32767,32767,1900,-25,-60,41,23914,24728,-1052,68,-90,-19,8316,4664,-10242,0,110,41
32767,32767,2164,3,-83,30,24142,24964,-1106,40,-76,-10,8328,4642,-10004,11,99,64
32767,32767,2408,22,-83,44,24042,24984,-1186,-3,-50,-4,8072,4636,-9766,22,93,88
32767,32767,2264,24,-72,46,23584,24872,-1214,-47,-40,-13,8126,4782,-9798,50,62,99
32767,32767,2268,38,-56,68,23378,24590,-1232,-63,-59,-23,8140,5010,-9898,65,42,96
32767,32767,2348,-58,-59,97,23774,24306,-1178,-52,-79,-22,8290,5226,-10010,24,35,81
32767,32767,2420,-86,-37,66,23874,24342,-1172,-32,-72,-20,8322,5366,-10040,-37,38,56
32767,32767,2472,-29,-36,145,23756,24450,-1230,-15,-53,-11,8260,5368,-10058,-96,56,44
32767,32767,2284,-83,-31,102,23662,24624,-1338,-1,-47,-11,8224,5198,-10096,-172,66,32
32767,32767,1916,-167,-32,127,23600,24740,-1298,-15,-46,-20,8234,5028,-10134,-220,66,26
32767,32767,2092,-146,0,160,23750,24748,-1282,-29,-47,-26,8314,4680,-10282,-204,62,29
32767,32767,1820,-166,-23,192,23838,24618,-1270,-47,-48,-29,8312,4592,-10534,-170,80,17
32767,32767,1966,-166,-4,126,23608,24562,-1312,-40,-42,-24,8212,4446,-10524,-150,91,10
32767,32767,2088,-138,-27,115,23560,24590,-1436,-28,-50,-26,8210,4376,-10484,-115,89,7
32767,32767,1884,-177,-37,158,23714,24594,-1276,-21,-59,-36,8212,4440,-10396,-52,87,11
32767,32767,1698,-203,-33,76,24066,24528,-1198,-27,-64,-57,8072,4506,-10478,4,90,25
32767,32688,1902,-146,-65,31,23864,24548,-1288,-23,-43,-59,7884,4442,-10342,49,95,35
32767,32672,1914,-114,-79,13,23560,24424,-1282,-24,-41,-39,7890,4468,-10222,74,66,20
32767,32288,2094,-66,-84,-13,23914,24440,-1190,9,-71,-42,8088,4474,-10020,73,45,-14
32767,32767,2120,-23,-84,-9,24030,24650,-1172,24,-64,-55,8216,4592,-10076,71,34,-30
32767,32767,2106,-47,-47,18,23728,24684,-1310,34,-56,-47,8390,4772,-10190,77,42,-34
32767,32767,2118,-105,-25,46,23938,24798,-1046,21,-76,-60,8464,4982,-10258,74,48,-33
32767,32767,2016,-139,-8,56,24102,24844,-1104,14,-64,-78,8474,5254,-10314,33,59,-48
32767,32767,1906,-102,-16,43,23420,24800,-1284,20,-40,-50,8454,5296,-10328,-24,62,-57
32767,32767,1896,-102,-27,39,23440,24540,-1190,11,-84,-33,8468,5154,-10388,-57,62,-51
32767,32767,2168,-93,-41,33,24040,24546,-1062,3,-100,-67,8454,4892,-10444,-61,66,-43
32767,32767,2228,-82,-62,28,23856,24562,-1296,-10,-60,-70,8210,4658,-10464,-52,74,-43
32767,32767,2510,-42,-54,30,23406,24184,-1284,-9,-64,-50,8068,4510,-10304,-26,53,-44
32767,32767,2550,-3,-44,24,23918,24066,-1336,13,-80,-97,8052,4564,-10124,5,29,-33
32767,32767,2334,-7,-30,21,24000,24320,-1204,47,-67,-79,8086,4682,-10202,58,0,-14
32767,32767,2184,-77,-39,21,23640,24518,-1218,68,-46,-41,8244,4886,-10408,104,-12,-11
32767,32767,2176,-140,-43,24,23448,24614,-1116,41,-76,-63,8440,4982,-10494,94,2,-26
32767,32767,2200,-120,-43,23,23630,24758,-1106,40,-92,-97,8388,4986,-10452,26,36,-50
32767,32767,2206,-58,-29,23,23666,24530,-1246,24,-94,-96,8166,4926,-10398,-53,60,-62
32767,32767,2206,10,-14,20,23782,24216,-1108,50,-112,-85,7970,4756,-10242,-90,44,-59
32767,32767,2046,-2,-13,24,24212,24318,-1220,41,-93,-99,8108,4532,-10308,-58,2,-47
32767,32767,1916,-89,-19,29,23608,24564,-1250,58,-57,-68,8278,4354,-10402,-29,-1,-45
32767,32767,1960,-142,-27,29,23412,24710,-1382,48,-61,-71,8442,4416,-10520,-15,23,-53
32767,32767,2046,-108,-22,22,23652,24732,-1324,40,-90,-70,8260,4510,-10474,-16,48,-57
32767,32767,2024,-37,-19,19,23844,24540,-1202,3,-93,-106,8100,4540,-10410,-1,38,-60
32767,32767,2074,2,-13,23,23814,24492,-1334,-5,-87,-113,8146,4550,-10418,32,17,-64
32767,32767,2074,-54,-18,22,23702,24526,-1200,8,-67,-76,8350,4544,-10404,40,6,-60
32767,32767,2044,-136,-17,0,23668,24534,-1274,29,-67,-55,8402,4518,-10412,34,21,-56
32767,32767,1984,-148,-23,-16,23642,24748,-1372,51,-61,-59,8318,4524,-10406,33,44,-53
32767,32767,2066,-62,-31,-10,23884,24740,-1550,47,-66,-38,8188,4544,-10358,44,22,-60
32767,32767,2052,-8,-21,-11,23776,24666,-1546,43,-58,-45,8280,4730,-10324,59,1,-55
32767,32767,2194,-39,-33,-3,23620,24554,-1312,4,-74,-69,8432,4750,-10524,47,10,-42
32767,32767,2122,-76,-26,-1,23696,24544,-1480,47,-76,-61,8322,4766,-10534,26,36,-34
32767,32767,2204,-61,-36,-13,23854,24486,-1472,34,-66,-28,8152,4732,-10322,8,40,-29
32767,32767,2092,-70,-41,-45,23856,24486,-1260,49,-60,-25,8070,4670,-10358,3,32,-27
32767,32767,1936,-29,-51,-18,23886,24682,-1332,43,-47,-40,8164,4530,-10374,4,19,-27
32767,32767,2258,20,-32,-13,23346,24572,-1418,54,-45,-23,8368,4404,-10426,17,20,-26
32767,32767,2294,6,-29,-47,23496,24350,-1350,95,-84,-36,8240,4372,-10492,3,44,-28
32767,32767,2254,-33,-29,-51,23824,24410,-1310,104,-96,-43,8126,4398,-10360,-4,35,-33
32767,32767,2128,-71,-23,-48,23814,24530,-1420,124,-75,-14,8336,4346,-10234,16,4,-28
32767,32767,2022,-58,-27,-62,23756,24780,-1314,101,-59,-2,8470,4314,-10342,34,5,-24
32767,32767,1822,-30,-22,-21,23740,24848,-1214,75,-44,12,8462,4310,-10344,28,22,-27
32767,32767,1852,36,-23,-110,23610,24712,-1192,30,-39,1,8180,4298,-10480,22,34,-23
32767,32767,1972,67,-66,-27,23650,24548,-1236,19,-50,2,8084,4276,-10466,49,14,-20
32767,32767,2192,-79,-58,-114,23920,24494,-1132,16,-50,12,8260,4490,-10498,81,-2,-21
32767,32767,2298,-123,-57,-64,23900,24550,-1106,32,-26,28,8358,4478,-10374,59,15,-13
32767,32767,2480,-36,-35,-107,23582,24744,-1062,59,-18,41,8308,4384,-10198,27,27,-17
32767,32767,2230,90,-13,-152,23502,24890,-1252,60,-27,45,8056,4304,-10180,13,13,-19
32767,32767,1844,134,-25,-89,23700,24954,-1356,15,-28,53,8164,4220,-10248,41,-21,-12
32767,32767,1892,45,-46,-72,23684,24812,-1408,-45,-16,53,8356,4266,-10470,88,-36,-7
32767,32767,1988,-120,-47,-21,23508,24712,-1546,-60,-20,45,8542,4532,-10608,93,-15,-11
32767,32767,2168,-117,-52,-123,23784,24552,-1518,-67,-29,45,8460,4608,-10694,47,26,-16
32767,32767,2130,-68,-48,-99,23912,24486,-1466,-47,-21,62,8162,4576,-10442,-13,51,-18
32767,32767,2050,10,-35,-125,23846,24356,-1440,-17,-10,63,7928,4320,-10076,-42,14,-23
32767,32767,2082,61,-30,-105,23928,24452,-1428,7,-6,59,8136,4064,-10278,-2,-21,-18
32767,32767,1868,15,-50,-88,24288,24760,-1408,39,-5,67,8490,4090,-10436,53,-18,-19
32767,32767,1934,-92,-27,-94,24074,25142,-1288,8,10,48,8596,4308,-10644,70,13,-22
32767,32767,1916,-61,-28,-85,23668,25128,-1058,-42,-3,28,8542,4524,-10604,52,49,-19
32767,32767,1884,-14,-30,-42,23662,24924,-1014,-64,-33,28,8370,4460,-10514,35,60,-21
32767,32767,1920,-13,-30,-87,23690,24624,-860,-72,-59,16,8324,4380,-10396,21,61,-31
32767,32767,1936,21,-24,-42,23966,24570,-972,-40,-54,19,8330,4214,-10352,3,55,-32
32767,32767,1906,77,-18,-54,23852,24724,-1172,5,-29,74,8274,4058,-10334,18,52,-18
32767,32767,1866,42,-33,-73,23738,24934,-1408,-16,-15,84,8280,4160,-10466,54,55,-5
32767,32767,1882,-53,-50,-47,23688,25220,-1582,-19,-9,84,8352,4294,-10648,91,60,-5
32767,32767,1896,-60,-56,-50,23536,24976,-1428,-85,-9,79,8506,4376,-10544,110,67,-6
32767,32767,2080,18,-46,-60,23580,24704,-1476,-135,-40,44,8496,4394,-10542,85,93,-12
32767,32767,2142,101,-31,-65,23702,24618,-1474,-125,-25,31,8326,4352,-10350,42,113,-19
32767,32767,1964,127,-33,-58,23598,24418,-1430,-146,-32,48,8102,4314,-10134,27,107,-8
32767,32767,2024,87,-34,-59,23532,24406,-1252,-140,-30,22,8078,4252,-10180,43,70,1
32767,32767,1880,65,-42,-50,23676,24446,-1258,-140,-28,14,8364,4240,-10404,65,56,3
32767,32767,1990,28,-57,-34,23754,24266,-1198,-142,-11,30,8430,4270,-10496,50,78,-2
32767,32767,2080,-20,-52,-32,23730,24152,-1376,-90,-5,36,8226,4368,-10344,18,100,-7
32767,32767,2118,14,-42,-32,24032,24494,-1176,-37,-4,21,7962,4448,-10346,-10,89,-1
32767,32767,2170,53,-31,-27,23866,24766,-1206,-50,15,9,7876,4380,-10356,-9,61,15
32767,32767,2232,18,-38,-18,23576,24944,-1242,-82,19,-12,8004,4238,-10376,5,38,21
32767,32767,2156,-63,-36,-3,23696,25028,-1294,-106,3,-11,8280,4154,-10438,13,32,9
32767,32767,2178,-74,-27,8,23718,24944,-1244,-147,2,-4,8358,4152,-10606,-7,49,0
32767,32767,2068,-30,-6,9,23746,24860,-1266,-166,5,-6,8374,4170,-10566,-21,66,-12
32767,32767,2046,-8,-1,10,23740,24832,-1502,-159,2,-6,8434,4216,-10568,-13,62,-19
32767,32767,1954,-74,14,35,23790,24872,-1602,-152,5,-6,8438,4290,-10584,-13,68,-20
32767,32767,1776,-143,28,49,23794,24792,-1538,-147,4,5,8362,4282,-10518,-22,71,-18
32767,32767,1782,-92,18,55,23862,24816,-1526,-150,3,3,8398,4324,-10582,-30,66,-16
32767,32767,1680,-18,10,75,23872,24688,-1528,-182,21,3,8448,4244,-10574,-33,68,-8
32767,32767,1722,-7,12,105,23612,24514,-1478,-172,18,6,8366,4344,-10554,-23,70,7
32767,32767,1874,-40,-11,103,23434,24448,-1474,-140,-2,-17,8352,4416,-10658,-4,66,28
32767,32767,1998,-83,-45,72,23420,24406,-1498,-106,-22,-34,8278,4452,-10646,10,51,51
32767,32767,2306,-111,-71,43,23768,24530,-1472,-84,-27,-19,8176,4426,-10632,0,55,54
32767,32767,2690,-101,-65,51,23788,24632,-1584,-67,-5,4,7900,4322,-10456,-26,60,54
32767,32767,2534,-33,-48,36,23630,24718,-1490,-64,-10,-7,7734,4288,-10280,-53,41,45
32767,32767,2400,13,-2,79,23632,24794,-1486,-79,-18,-28,7926,4284,-10206,-61,-8,41
32767,32767,2156,0,-4,65,23684,24762,-1376,-90,-23,-27,8342,4298,-10386,-51,-37,32
32767,32767,1818,-102,19,149,23740,24522,-1404,-84,-30,-23,8614,4500,-10702,-41,-9,17
32767,32767,1806,-139,18,115,23702,24328,-1286,-59,-50,-41,8504,4638,-10838,-81,54,-5
32767,32767,2076,-162,40,149,23668,24286,-1340,-4,-74,-58,8230,4464,-10678,-174,86,-29
32767,32767,2016,-101,30,130,23656,24410,-1424,38,-85,-58,8116,4162,-10584,-214,76,-44
32767,32767,1912,-56,83,185,23946,24746,-1414,31,-60,-20,8112,3824,-10434,-184,57,-53
32767,32767,2026,-69,47,130,23808,24790,-1444,28,-47,5,8178,3576,-10388,-124,33,-50
32767,32767,1892,-230,26,95,23596,24758,-1436,11,-56,-10,8210,3512,-10426,-71,24,-44
32767,32767,1772,-255,20,124,23554,24624,-1368,20,-76,-31,8132,3664,-10526,-20,14,-43
32767,32767,1818,-169,39,146,23768,24614,-1302,24,-92,-38,8106,3972,-10628,33,-6,-38
32767,32767,1770,-81,52,133,23962,24646,-1324,-8,-70,-30,8148,4356,-10530,50,-22,-31
32767,32767,1836,-59,43,138,23748,24710,-1382,-11,-52,-6,8268,4516,-10582,29,-33,-29
32767,32767,1848,-116,8,124,23404,24550,-1436,-4,-63,-8,8292,4534,-10600,-28,-29,-47
32767,32767,1896,-160,-2,133,23810,24378,-1440,65,-92,-25,8290,4468,-10672,-84,-27,-58
32767,32767,2210,-162,7,138,23658,24364,-1522,93,-94,-31,8276,4322,-10634,-133,-17,-59
32767,32767,2112,-148,-4,123,23620,24564,-1522,83,-109,-46,8110,4276,-10630,-164,-9,-58
32767,32767,2068,-172,14,124,23646,24702,-1452,65,-101,-56,8214,4130,-10594,-159,-26,-56
32767,32767,1848,-203,22,116,23422,24570,-1470,34,-110,-71,8452,4100,-10644,-139,-30,-52
32767,32767,1776,-204,9,88,23656,24518,-1342,38,-114,-78,8546,4006,-10674,-128,-7,-49
32767,32767,1746,-228,-2,74,23806,24224,-1312,55,-104,-61,8412,3910,-10526,-126,13,-51
32767,32767,1728,-250,-3,71,23646,24452,-1296,98,-91,-79,8186,3818,-10616,-113,4,-44
32767,32767,1628,-232,-16,75,23476,24662,-1404,113,-85,-57,8244,3882,-10734,-73,-7,-47
32767,32767,1664,-264,-21,78,23558,24722,-1324,86,-88,-47,8362,3964,-10764,-36,-11,-51
32767,32767,1850,-234,-22,79,23594,24810,-1282,52,-100,-60,8538,3902,-10728,-38,3,-53
32767,32767,1916,-194,-18,66,23786,24740,-1374,10,-93,-80,8396,3904,-10508,-60,23,-61
32767,32767,1838,-167,-10,46,23698,24496,-1338,33,-98,-60,8294,3866,-10534,-60,27,-54
32767,32767,1652,-159,-26,40,23650,24196,-1354,34,-105,-79,8282,3908,-10594,-26,13,-38
32767,32767,1688,-181,-25,38,23742,24428,-1474,74,-94,-88,8444,3944,-10658,5,5,-21
32767,32767,1682,-187,-38,37,23528,24502,-1376,94,-84,-66,8478,3970,-10730,2,29,-20
32767,32767,1924,-196,-44,30,23442,24578,-1384,76,-102,-74,8404,4040,-10752,-5,43,-20
32767,32767,1962,-170,-43,26,23530,24782,-1490,101,-103,-84,8358,4118,-10802,4,49,-6
32767,32767,1990,-110,-32,8,23798,24688,-1352,68,-112,-72,8340,4024,-10642,15,50,10
32767,32767,2044,-49,-29,-14,23908,24566,-1338,32,-90,-89,8344,3840,-10368,15,45,9
32767,32767,1870,-28,-28,-28,23556,24576,-1482,65,-63,-83,8282,3758,-10360,6,28,-7
32767,32767,1764,-40,-39,-30,23368,24596,-1484,81,-83,-63,8366,3764,-10482,29,12,-5
32767,32767,1738,-95,-41,-13,23612,24678,-1548,118,-101,-60,8434,3954,-10776,79,16,18
32767,32767,1868,-102,-47,-7,23850,24748,-1476,91,-106,-74,8408,4292,-10838,81,52,34
32767,32767,2040,-82,-40,-12,23950,24758,-1380,76,-91,-78,8310,4290,-10542,-3,66,21
32767,32767,1914,-33,-36,-28,23792,24692,-1578,53,-66,-70,8254,4076,-10398,-71,52,18
32767,32767,1858,19,-49,-28,23802,24688,-1424,51,-57,-60,8230,3812,-10410,-49,36,31
32767,32767,1936,-40,-56,-19,23798,24860,-1306,52,-49,-48,8314,3756,-10674,24,29,42
32767,32767,1962,-109,-62,-18,23606,24866,-1068,35,-46,-36,8400,3910,-10812,56,29,43
32767,32767,1902,-99,-50,-23,23926,24864,-1220,14,-41,-16,8478,4078,-10818,32,41,39
32767,32767,1838,-5,-36,-32,23640,24744,-1272,20,-42,0,8458,4072,-10772,-5,56,36
32767,32767,1858,60,-28,-35,23480,24640,-1234,35,-70,-17,8278,3884,-10606,4,61,42
32767,32767,1900,61,-43,-53,23804,24764,-1346,42,-78,-23,8176,3892,-10702,21,42,35
32767,32767,1788,22,-66,-87,23910,24708,-1498,40,-61,-6,8272,3778,-10666,23,27,32
32767,32767,1824,-54,-89,-128,23770,24648,-1500,17,-46,3,8302,3704,-10576,25,41,25
32767,32767,1786,-55,-72,-112,23792,24706,-1436,-7,-25,7,8228,3824,-10636,48,45,23
32767,32767,1684,108,-79,-107,23768,24748,-1460,-30,-10,14,8060,3996,-10476,85,38,30
32767,32767,1810,118,-73,-95,23582,24626,-1374,-34,-2,16,8046,4172,-10588,101,19,28
32767,32767,1828,76,-63,-115,23682,24604,-1346,-21,-3,17,8238,4108,-10522,79,1,19
32767,32767,1944,44,-92,-123,24108,24758,-1198,4,44,75,8396,3940,-10606,31,9,14
32767,32767,2000,-15,-83,-72,24060,24814,-1232,11,71,111,8286,3906,-10636,28,26,17
32767,32767,2028,-49,-90,-142,23736,25036,-1134,4,67,128,8274,4086,-10544,55,26,25
32767,32767,2060,-17,-49,-69,23692,25200,-1080,-72,50,114,8240,4186,-10606,76,20,35
32767,32767,1948,29,-64,-107,23976,25138,-1192,-119,38,106,8240,4168,-10586,50,24,20
32767,32767,1882,35,-51,-161,23898,24912,-1456,-153,29,103,8270,4064,-10556,10,21,3
32767,32767,1782,56,-64,-113,23826,24666,-1392,-163,4,86,8274,3888,-10626,10,20,3
32767,32767,1890,27,-72,-144,23972,24564,-1354,-164,-15,60,8268,3754,-10680,54,24,4
32767,32767,1936,-21,-77,-121,23934,24588,-1470,-112,-4,69,8264,3838,-10642,92,29,-1
32767,32767,1966,-23,-62,-113,23516,24652,-1614,-85,0,79,8108,4054,-10490,87,22,-3
32767,32767,1814,34,-63,-123,23430,24858,-1634,-69,-18,87,8150,4094,-10534,90,6,-5
32767,32767,1678,87,-45,-101,23518,24942,-1528,-82,-26,76,8370,4124,-10662,102,-2,-9
32767,32767,1770,96,-47,-89,23628,24910,-1408,-124,-27,36,8516,4110,-10724,100,16,-17
32767,32767,1840,32,-49,-77,23862,24888,-1638,-127,-15,28,8558,4016,-10856,76,52,-26
32767,32767,1878,-27,-48,-118,23358,24494,-1550,-126,1,60,8278,3982,-10562,54,72,-31
32767,32767,1800,-15,-39,-101,23578,24330,-1464,-110,-24,17,8160,3982,-10426,56,64,-24
32767,32767,1706,61,-44,-104,23832,24552,-1676,-60,0,57,8108,4004,-10314,69,40,-19
32767,32767,1620,94,-39,-113,23604,24582,-1556,-57,17,77,8304,4028,-10522,84,24,-13
32767,32767,1834,70,-57,-96,23738,24944,-1626,-32,7,61,8354,4008,-10558,86,38,-12
32767,32767,1990,-1,-72,-76,23750,25246,-1618,-64,16,47,8224,4218,-10562,55,51,-20
32767,32767,2082,-75,-72,-36,23606,25386,-1432,-83,33,66,8146,4316,-10632,31,45,-14
32767,32767,2144,-9,-47,-31,23682,25186,-1542,-164,49,89,8254,4288,-10676,32,36,-3
32767,32767,2260,22,-33,-33,23594,24928,-1552,-168,58,112,8416,4250,-10650,17,49,-4
32767,32767,2186,-7,-13,-33,23510,24830,-1646,-160,51,106,8390,4090,-10570,-24,70,-21
32767,32767,2068,1,-5,-35,23840,24794,-1686,-88,6,75,8342,3870,-10468,-54,71,-32
32767,32767,1830,18,-5,-33,23892,24808,-1760,-97,4,38,8204,3728,-10468,-26,58,-26
32767,32767,1840,-2,-13,-27,23466,24604,-1586,-95,1,28,8206,3826,-10512,-8,52,-24
32767,32767,1762,-40,-31,-9,23302,24344,-1524,-94,-31,-11,8182,3872,-10578,6,43,-23
32767,32767,1762,-76,-41,5,23692,24432,-1384,-9,-63,-18,8200,4026,-10650,3,42,-14
32767,32767,1902,-70,-41,1,23352,24440,-1418,19,-57,-16,8010,4120,-10462,-24,34,-14
32767,32767,1896,-26,-35,11,23338,24646,-1470,52,-70,-14,7770,3834,-10090,-44,-21,-15
32767,32767,1798,13,-41,9,23738,24954,-1632,52,-65,4,8050,3530,-10100,-7,-94,3
32767,32767,1764,-22,-46,37,23668,25042,-1564,24,-46,-9,8542,3652,-10510,53,-106,46
32767,32767,2124,-118,-45,71,23524,25152,-1578,-15,-41,-36,8660,4196,-10650,66,-44,55
32767,32767,2374,-198,-35,93,23612,25108,-1512,-54,-48,-34,8418,4606,-10602,9,-16,38
32767,32767,2472,-178,-11,133,23554,24678,-1502,-84,-30,-34,8422,4780,-10594,-57,-26,33
32767,32767,2404,-146,5,146,23374,24520,-1458,-64,-37,-37,8616,4694,-10620,-112,-28,35
32767,32767,2126,-178,-16,104,23744,24462,-1490,-40,-51,-34,8652,4460,-10512,-166,4,40
32767,32767,2152,-207,-24,103,24092,24504,-1532,-11,-46,-25,8398,4138,-10374,-212,34,31
32767,32767,1914,-155,-22,146,24030,24554,-1636,31,-16,-20,8292,3936,-10404,-221,24,16
32767,32767,1672,-113,-26,175,23544,24624,-1510,73,-2,-5,8398,3734,-10518,-193,19,11
32767,32767,2002,-123,-14,101,23468,24686,-1502,101,-31,20,8282,3660,-10630,-147,56,15
32767,32767,1910,-126,-33,105,23664,24944,-1510,108,-43,25,8070,3702,-10450,-116,68,14
32767,32767,1856,-160,-43,130,23782,25238,-1606,81,-49,11,8084,3806,-10458,-76,41,18
32767,32767,1858,-158,-36,120,23876,25344,-1672,15,-52,-9,8306,3816,-10578,-38,13,19
32767,32767,1998,-127,-43,52,23904,25212,-1618,-31,-38,-19,8352,3824,-10490,-42,27,7
32767,32767,1940,-123,-41,109,23760,24970,-1654,-57,-29,-19,8222,3942,-10440,-82,43,-4
32767,32767,1736,-74,-19,103,23604,24768,-1616,-39,-41,-16,8144,3988,-10348,-100,29,-4
32767,32767,1776,-74,-20,126,23662,24872,-1504,-13,-55,-3,8312,4080,-10570,-75,9,7
32767,32767,1680,-97,-22,114,23704,25024,-1582,5,-61,8,8232,4166,-10692,-81,32,-1
32767,32767,1878,-122,-54,107,23710,25048,-1618,7,-73,-15,7962,4034,-10386,-141,26,-23
32767,32767,1990,-189,-30,156,23770,24974,-1624,-20,-86,-37,8070,3840,-10354,-180,-14,-33
32767,32767,1836,-166,-55,107,23738,24860,-1642,-17,-80,-22,8386,3816,-10612,-163,-24,-29
32767,32767,1958,-135,-31,118,23626,24824,-1676,7,-75,-16,8544,3902,-10786,-116,2,-17
32767,32767,1958,-182,-8,194,23652,24884,-1650,17,-82,-14,8554,4042,-10972,-77,40,-6
32767,32767,2004,-233,-1,168,23824,25020,-1722,23,-77,-6,8428,4198,-10846,-69,65,-3
32767,32767,1988,-283,-13,113,23616,24974,-1780,31,-74,-10,8396,4178,-10748,-86,74,-8
32767,32767,1930,-203,-15,107,23340,24914,-1560,7,-92,-31,8418,3926,-10686,-90,69,-7
32767,32767,2098,-116,-57,37,23484,24800,-1470,-23,-101,-49,8382,3590,-10638,-67,83,-5
32767,32767,2168,-116,-55,37,23926,24718,-1590,-38,-76,-37,8076,3512,-10570,-28,85,1
32767,32767,2250,-85,-59,19,23534,24496,-1516,-46,-53,-25,7950,3464,-10542,11,59,-1
32767,32767,2090,-29,-48,15,23468,24494,-1354,-46,-58,-43,8054,3584,-10582,46,18,-10
32767,32767,2066,7,-28,24,23682,24878,-1322,-22,-46,-33,8148,3814,-10614,71,6,-19
32767,32767,1982,-1,-23,18,23346,24776,-1322,-48,-36,-18,8292,4140,-10656,79,20,-13
32767,32767,1884,-100,-27,16,23298,24744,-1212,-47,-60,-35,8426,4278,-10634,49,41,-2
32767,32767,1950,-135,-29,19,23696,24836,-1368,-76,-76,-60,8200,4216,-10546,-18,61,-10
32767,32767,2014,-101,-31,16,24018,24854,-1570,-97,-47,-64,8146,3916,-10564,-71,51,-36
32767,32767,2014,-57,-21,16,23680,24724,-1720,-54,-35,-42,8298,3790,-10516,-75,35,-43
32767,32767,2052,-55,-14,22,23406,24644,-1626,-29,-62,-81,8412,3774,-10496,-85,34,-38
32767,32767,2056,-67,-6,15,23818,24982,-1732,4,-78,-104,8136,3680,-10450,-89,19,-26
32767,32767,1872,-60,-20,7,23784,25118,-1754,-35,-60,-81,8118,3502,-10466,-55,-38,-19
32767,32767,1866,-74,-44,4,23602,24880,-1722,-54,-67,-83,8470,3404,-10642,20,-75,-16
32767,32767,1984,-91,-53,1,23770,24844,-1770,-40,-71,-105,8632,3584,-10676,76,-34,-7
32767,32767,2054,-4,-42,-5,23698,24772,-1730,-17,-78,-87,8368,3830,-10710,67,14,-14
32767,32767,2154,147,-23,-4,23798,24860,-1734,43,-83,-74,8130,4074,-10470,54,-3,-11
32767,32767,2278,119,-25,4,23692,25060,-1812,67,-72,-38,8420,4284,-10504,49,-20,5
32767,32767,2144,-71,-22,10,23524,25220,-1880,61,-68,-28,8542,4324,-10536,12,-2,16
32767,32767,1934,-136,-27,9,23476,25242,-1850,55,-90,-29,8434,4222,-10608,-37,22,8
32767,32767,1960,-18,-34,7,23634,25174,-1822,27,-93,-50,8380,3990,-10592,-82,29,1
