ax,ay,az,gx,gy,gz,ax,ay,az,gx,gy,gz,ax,ay,az,gx,gy,gz
32767,30888,1154,-147,-34,-1,22718,20544,-1388,-5,-48,-4,8704,5296,-7382,-7,15,6
32767,30914,1134,-123,-31,10,22652,20724,-1220,5,-52,-6,8712,5380,-7392,12,13,6
32767,30706,938,-94,-22,18,22676,20822,-1096,-3,-55,1,8726,5480,-7450,13,10,10
32767,30752,856,-54,-24,23,22720,20838,-1168,-9,-56,8,8858,5490,-7538,15,6,18
32767,30964,964,-35,-37,22,22508,20764,-1124,-14,-59,7,8898,5484,-7464,23,16,22
32767,31210,1006,-74,-54,11,22680,20682,-1144,-4,-71,-2,8882,5528,-7436,15,38,17
32767,31150,1052,-102,-60,12,22772,20690,-1074,3,-69,-5,8602,5606,-7334,-3,46,12
32767,30966,1158,-74,-55,15,22742,20672,-1124,8,-58,8,8542,5606,-7410,4,30,24
32767,30908,1286,-38,-44,18,22754,20678,-1060,-6,-49,12,8686,5554,-7358,11,24,40
32767,31018,1294,-18,-42,16,22700,20662,-1094,-21,-46,8,8706,5568,-7258,6,33,41
32767,31080,1334,-29,-45,8,22636,20656,-1120,-41,-47,5,8678,5592,-7140,1,40,32
32767,31176,1192,-21,-48,3,22664,20578,-1060,-44,-52,-2,8586,5628,-7174,4,28,24
32767,31322,1192,-45,-47,-2,22658,20516,-1042,-38,-59,-8,8664,5644,-7270,-4,12,26
32767,31144,1248,-70,-48,8,22656,20450,-1106,-15,-68,-2,8706,5648,-7320,-24,12,29
32767,30980,1248,-85,-52,11,22726,20496,-1132,14,-71,0,8736,5562,-7358,-40,21,26
32767,30800,1358,-93,-48,17,22800,20734,-1168,39,-60,5,8736,5538,-7366,-36,25,24
32767,30718,1388,-87,-40,15,22720,20902,-1174,31,-47,8,8672,5502,-7264,-25,25,23
32767,30778,1396,-61,-37,8,22624,21028,-1122,-3,-48,5,8638,5526,-7266,-14,24,23
32767,30916,1244,-44,-31,7,22700,20988,-1128,-42,-54,5,8656,5554,-7204,4,14,24
32767,31100,1062,-26,-33,14,22722,20790,-1084,-62,-51,7,8650,5606,-7282,17,-1,26
32767,31300,1074,-35,-41,12,22682,20690,-1152,-54,-50,6,8808,5632,-7288,23,-4,26
32767,31160,1112,-81,-50,6,22692,20668,-1000,-50,-51,4,8876,5666,-7386,20,11,22
32767,31156,1264,-81,-61,1,22656,20700,-1176,-27,-51,14,8672,5752,-7322,1,35,16
32767,31118,1338,-74,-57,-5,22720,20746,-1068,-11,-51,18,8598,5838,-7372,-14,26,18
32767,31114,1220,-74,-68,-5,22700,20868,-1094,-15,-52,16,8692,5836,-7344,-39,21,24
32767,31150,1282,-80,-69,-3,22640,20834,-996,-32,-52,15,8652,5750,-7364,-65,29,27
32767,31120,1188,-89,-76,-5,22646,20760,-1030,-43,-57,10,8652,5582,-7292,-74,33,25
32767,31124,1290,-96,-61,1,22674,20716,-1032,-46,-59,10,8648,5518,-7252,-60,27,26
32767,31014,1268,-92,-58,2,22802,20594,-1056,-41,-58,5,8668,5582,-7288,-47,21,28
32767,31076,1390,-78,-54,3,22774,20630,-1130,-24,-47,2,8686,5556,-7366,-34,19,31
32767,31018,1486,-97,-52,9,22630,20640,-1100,-17,-42,7,8690,5626,-7280,-19,16,32
32767,30982,1450,-117,-47,0,22646,20694,-1036,-6,-49,-4,8646,5668,-7204,-4,6,35
32767,30892,1320,-126,-41,2,22724,20738,-1150,-5,-48,-8,8606,5692,-7262,2,3,34
32767,30764,1170,-110,-38,15,22788,20788,-1128,3,-45,-4,8674,5684,-7238,-2,2,27
32767,30718,1200,-85,-27,15,22814,20928,-1138,-2,-40,-6,8710,5738,-7380,-6,-3,23
32767,30762,1238,-51,-29,17,22782,21026,-1194,-15,-33,-8,8784,5736,-7374,-7,2,18
32767,30852,1306,-39,-33,15,22624,21004,-1068,-31,-31,-8,8694,5814,-7206,-15,12,15
32767,31108,1378,-49,-31,11,22674,20904,-1068,-45,-37,-9,8652,5898,-7138,-23,11,14
32767,31112,1144,-73,-28,14,22830,20732,-1178,-44,-43,-2,8742,5832,-7190,-25,6,15
32767,31216,1190,-85,-30,12,22878,20624,-1290,-42,-32,-1,8780,5788,-7242,-27,8,19
32767,31150,1308,-121,-30,7,22692,20584,-1316,-36,-25,-1,8828,5752,-7288,-32,20,15
32767,31006,1366,-121,-32,5,22686,20662,-1296,-38,-30,-1,8796,5740,-7328,-46,30,10
32767,30880,1318,-85,-28,7,22704,20696,-1256,-34,-35,-5,8752,5694,-7266,-56,29,5
32767,31090,1162,-45,-20,15,22694,20686,-1188,-40,-30,-8,8728,5600,-7272,-58,21,5
32767,31056,1164,-69,-28,21,22656,20700,-1122,-37,-32,-7,8816,5524,-7298,-59,19,5
32767,30968,1038,-107,-35,18,22618,20676,-1068,-21,-38,-6,8818,5574,-7370,-53,28,4
32767,30762,1248,-119,-47,15,22766,20744,-1034,-3,-46,-5,8752,5572,-7334,-45,37,2
32767,30644,1214,-97,-54,12,22798,20784,-1092,13,-44,3,8690,5594,-7364,-32,34,4
32767,30734,1266,-67,-53,13,22718,20846,-1048,7,-39,7,8678,5626,-7258,-28,25,8
32767,30854,1298,-42,-46,15,22666,20924,-1018,-6,-42,6,8720,5628,-7308,-16,22,14
32767,31012,1386,-37,-40,18,22600,20938,-1110,-33,-47,5,8746,5606,-7124,-2,23,18
32767,31034,1342,-38,-39,21,22662,20766,-1024,-53,-48,-2,8746,5610,-7216,11,22,24
32767,31240,1414,-72,-43,10,22662,20626,-1160,-61,-50,-6,8684,5738,-7240,20,15,24
32767,31218,1368,-104,-51,5,22762,20554,-1132,-39,-47,-5,8808,5800,-7294,15,13,21
32767,30870,1294,-107,-48,8,22758,20692,-1290,-4,-41,-1,8750,5854,-7274,-4,18,16
32767,30722,1364,-77,-40,9,22704,20834,-1226,5,-40,2,8716,5874,-7320,-41,28,11
32767,30826,1268,-45,-32,12,22706,20924,-1256,2,-38,3,8720,5790,-7196,-61,29,5
32767,31074,1256,-56,-27,17,22690,20940,-1132,-15,-35,0,8752,5754,-7308,-62,26,3
32767,31112,1254,-94,-41,15,22678,20880,-1192,-35,-35,0,8840,5644,-7286,-55,31,6
32767,30948,1140,-111,-52,13,22638,20740,-1074,-42,-39,1,8838,5620,-7208,-38,38,6
32767,30860,1174,-82,-64,11,22682,20648,-1196,-36,-41,-3,8724,5602,-7364,-25,41,6
32767,30984,1224,-69,-65,10,22642,20682,-1072,-9,-35,3,8684,5676,-7350,-14,37,12
32767,31024,1378,-61,-62,10,22602,20792,-1018,2,-36,9,8712,5644,-7200,-8,29,11
32767,31014,1408,-78,-58,10,22544,20904,-842,16,-54,15,8710,5678,-7362,-5,29,10
32767,30884,1324,-78,-61,10,22644,20964,-876,29,-74,26,8634,5704,-7306,-2,27,10
32767,30990,1292,-73,-67,13,22678,21096,-870,39,-99,25,8706,5706,-7338,-1,22,9
32767,31136,1328,-95,-76,8,22842,21170,-990,10,-84,26,8750,5706,-7388,1,17,7
32767,30994,1396,-107,-57,7,22822,21038,-1220,-25,-62,32,8698,5804,-7344,-4,23,8
32767,30810,1620,-56,2,-8,22742,20818,-1294,-50,-45,18,8584,5962,-7292,-7,33,17
32767,31106,1966,-13,19,-25,22778,20774,-1396,-66,-35,2,8552,6014,-7192,-11,34,30
32767,31502,1738,-49,17,-35,22796,20622,-1440,-76,-25,-8,8484,5966,-7124,-26,21,33
32767,31380,1520,-117,16,-29,22684,20532,-1360,-64,-21,-12,8518,5846,-7110,-47,1,31
32767,31128,1304,-156,0,-28,22662,20548,-1298,-37,-30,-14,8780,5644,-7182,-45,-20,27
32767,30776,1062,-177,-15,-21,22742,20696,-1242,-1,-40,-9,8950,5606,-7278,-31,-15,23
32767,30544,946,-177,-35,-18,22908,20826,-1276,37,-35,4,8984,5654,-7376,-36,8,10
32767,30434,824,-153,-51,-5,22834,20998,-1250,48,-27,7,8864,5662,-7346,-45,27,-5
32767,30336,980,-120,-55,10,22726,21130,-1374,35,-24,5,8832,5736,-7362,-53,29,-14
32767,30460,1122,-76,-52,14,22730,21110,-1316,17,-22,1,8802,5706,-7256,-58,30,-11
32767,30846,1260,-44,-55,17,22790,21060,-1338,1,-22,-3,8850,5684,-7278,-53,31,-8
32767,31108,1268,-55,-65,18,22754,20952,-1216,6,-17,-1,8840,5634,-7350,-32,33,1
32767,31046,1178,-81,-78,18,22760,20830,-1244,21,-18,5,8804,5662,-7322,7,35,9
32767,30786,1180,-86,-91,18,22662,20840,-1272,50,-18,6,8784,5674,-7312,28,37,7
32767,30690,1190,-59,-102,13,22620,21000,-1134,60,-24,3,8798,5728,-7318,34,43,2
32767,30770,1146,-31,-118,11,22688,21088,-1102,62,-31,18,8776,5746,-7376,32,50,4
32767,30854,1352,-20,-142,12,22634,21122,-1100,61,-32,30,8718,5770,-7360,32,50,8
32767,30930,1196,-22,-162,6,22636,21114,-1078,60,-45,30,8644,5786,-7286,34,47,8
32767,30960,1302,-18,-159,10,22636,21018,-1214,67,-54,36,8748,5774,-7312,25,43,9
32767,30980,1422,-35,-151,12,22606,20994,-1184,76,-63,38,8730,5710,-7232,18,41,10
32767,30930,1662,-39,-152,6,22694,21050,-1130,64,-62,31,8668,5692,-7208,23,28,5
32767,31004,1786,-21,-159,9,22966,21082,-1290,43,-27,39,8700,5688,-7328,48,18,8
32767,31184,1792,-21,-166,11,22756,20842,-1396,43,-1,51,8756,5740,-7294,75,19,14
32767,31410,1726,-53,-146,8,22694,20784,-1520,72,-5,55,8734,5712,-7296,79,26,11
32767,31340,1834,-133,-142,-8,22794,20980,-1390,106,-14,47,8738,5662,-7160,80,27,-2
32767,31292,1632,-237,-174,-7,22804,21212,-1280,129,-8,34,8754,5702,-7138,76,15,-26
32767,31056,1396,-294,-194,11,22920,21302,-1394,104,7,11,8878,5706,-7242,64,-1,-46
32767,30808,1306,-330,-203,18,22704,21202,-1392,74,21,-12,8974,5690,-7316,78,14,-45
32767,30064,1382,-287,-212,31,22460,21062,-1246,91,20,-15,8760,5884,-7402,107,56,-38
32767,30026,1306,-168,-252,48,22566,20970,-1182,127,-14,-7,8678,6048,-7404,92,62,-32
32767,30162,1314,-46,-245,50,22808,21160,-1244,157,-18,-8,8734,6128,-7442,55,51,-33
32767,30212,1546,30,-247,45,22830,21346,-1262,209,-15,5,8786,5944,-7414,16,51,-33
32767,30576,1736,53,-272,42,22642,21506,-1348,222,-3,8,8870,5694,-7410,0,59,-33
32767,30578,1764,34,-278,51,22452,21420,-1430,203,21,29,8846,5510,-7358,4,79,-37
32767,30488,2074,54,-252,52,22544,21472,-1524,217,-27,59,8628,5502,-7294,18,92,-26
32767,30664,2016,113,-256,53,22736,21878,-1530,224,-42,50,8426,5516,-7312,47,72,-3
32767,30840,2128,146,-266,51,22730,22200,-1400,177,-31,38,8564,5532,-7272,120,12,16
32767,30906,2092,167,-264,47,22604,22242,-1428,45,-20,8,8874,5500,-7348,159,-17,8
32767,30962,2192,184,-271,42,22556,22054,-1506,-46,-12,-19,8930,5466,-7450,159,9,-19
32767,31108,2388,240,-280,45,22458,21616,-1508,-104,-16,-14,8794,5726,-7440,161,54,-33
32767,31808,2140,269,-297,37,22500,21332,-1344,-94,-42,-4,8458,6116,-7444,165,66,-20
32767,32128,1960,74,-252,18,22770,21344,-1304,-37,-47,-12,8486,6268,-7408,121,45,-3
32767,31282,2130,-69,-200,16,22618,21460,-1318,4,-43,3,8760,6128,-7366,53,31,-5
32767,30670,2364,-43,-189,32,22506,21576,-1234,37,-59,25,8870,5974,-7456,0,56,-14
32767,30796,2492,37,-183,22,22602,21716,-1228,48,-68,24,8794,5830,-7426,-42,95,-20
32767,31342,2592,82,-173,20,22634,21728,-1434,35,-79,29,8548,5858,-7424,-59,97,-16
32767,31818,2636,66,-167,25,22844,21750,-1390,26,-79,26,8504,5798,-7408,-65,72,-8
32767,31894,2622,7,-136,14,22944,21792,-1334,14,-73,6,8514,5714,-7404,-50,53,-4
32767,31568,2754,-67,-112,7,22852,21770,-1428,-2,-56,-4,8638,5644,-7454,-22,48,1
32767,31186,2780,-44,-113,7,22666,21688,-1344,-8,-50,6,8700,5612,-7412,9,53,3
32767,31254,2854,23,-101,6,22516,21692,-1414,4,-54,18,8694,5694,-7454,38,50,3
32767,31424,2540,58,-126,15,22406,21750,-1366,25,-64,20,8618,5930,-7426,67,38,14
32767,31762,2400,37,-121,8,22410,22022,-1428,2,-78,22,8684,5962,-7466,74,21,24
32767,31518,2404,-38,-103,6,22268,22036,-1390,-63,-85,32,8710,5954,-7568,62,18,22
32767,31292,2522,-30,-100,8,22196,22016,-1342,-114,-97,27,8666,5874,-7650,47,34,12
32767,31636,2692,14,-101,10,22474,21898,-1226,-138,-112,29,8540,5880,-7568,17,48,4
32767,32112,2784,-3,-96,3,22864,21726,-1142,-132,-126,24,8438,5904,-7534,-29,56,-2
32767,32084,2850,-74,-68,2,23032,21672,-1098,-125,-102,18,8478,5814,-7518,-67,59,-7
32767,31664,3016,-145,-51,9,22894,21716,-1238,-118,-77,31,8470,5678,-7586,-87,64,-13
32767,31412,2760,-134,-35,15,22728,21652,-1342,-119,-61,34,8496,5736,-7612,-84,60,-20
32767,31508,2802,-154,4,-5,22748,21604,-1346,-80,-87,0,8576,5792,-7450,-74,52,-16
32767,31474,2710,-160,18,-10,22882,21636,-1480,-93,-67,4,8506,5974,-7332,-77,47,-2
32767,31340,2536,-177,30,-12,22774,21516,-1466,-97,-50,9,8426,6004,-7338,-90,23,2
32767,31388,2424,-145,35,-16,22744,21452,-1508,-94,-50,2,8614,5830,-7630,-85,-1,6
32767,31436,2588,-117,35,-8,22800,21494,-1496,-91,-47,-3,8834,5704,-7830,-68,10,8
32767,31646,2580,-149,24,-7,22582,21520,-1430,-92,-31,-5,8828,5672,-7780,-75,45,4
32767,31286,2476,-259,19,-10,22678,21456,-1520,-107,-35,-15,8648,5586,-7610,-85,64,0
32767,31080,2318,-257,15,-13,22742,21462,-1570,-90,-33,-26,8512,5548,-7554,-85,47,2
32767,30886,2174,-214,10,-11,22752,21458,-1520,-77,-30,-22,8694,5492,-7476,-65,20,2
32767,30834,2206,-165,2,-12,22888,21500,-1446,-49,-33,-18,8862,5648,-7628,-37,27,-1
32767,31046,2170,-122,-10,-11,22724,21544,-1400,-19,-39,-20,8722,5666,-7724,-38,56,-1
32767,31230,2110,-123,-29,4,22652,21566,-1368,-2,-38,-18,8522,5620,-7766,-59,67,-11
32767,31186,2246,-172,-29,-3,22790,21648,-1484,19,-45,-11,8562,5638,-7744,-74,48,-20
32767,30994,2158,-196,-53,4,23100,21704,-1574,43,-34,-9,8806,5598,-7788,-67,34,-24
32767,30650,2206,-198,-59,-8,22840,21538,-1614,43,-3,-20,9066,5628,-7804,-54,49,-28
32767,30892,2316,-181,-63,-29,22406,21218,-1342,6,-16,-62,8856,5658,-7740,-53,76,-25
32767,30888,2276,-167,-75,-37,22508,21232,-1276,13,-37,-88,8634,5734,-7834,-53,84,-12
32767,30714,2284,-133,-87,-37,22772,21240,-1182,46,-39,-59,8568,5694,-7882,-26,73,10
32767,30762,2404,-85,-84,-41,22470,21064,-1102,63,-34,-40,8612,5604,-7748,-20,70,6
32767,30792,2452,-32,-87,-55,22364,21188,-1096,113,-50,-57,8628,5532,-7692,-19,68,5
32767,31006,2174,35,-117,-82,22394,21600,-1248,157,-73,-39,8692,5560,-7812,20,57,18
32767,30432,1918,30,-134,-126,22350,21632,-1100,143,-97,-19,8772,5590,-7854,68,55,31
32767,29968,2306,-27,-135,-205,22876,21766,-1184,146,-123,-44,8650,5520,-7798,65,71,32
32767,30304,2424,25,-137,-154,22902,21844,-1234,90,-93,-36,8458,5448,-7652,28,74,14
32767,30670,2674,101,-128,-165,22694,21710,-1326,72,-63,-26,8340,5360,-7616,27,46,5
32767,31106,2848,96,-101,-185,22592,21756,-1528,91,-76,-29,8490,5444,-7686,89,10,10
32767,31148,2824,67,-87,-149,22660,21848,-1532,95,-89,-29,8596,5598,-7798,121,10,12
32767,31034,3078,12,-84,-121,22826,21888,-1566,83,-97,-25,8650,5720,-7852,119,21,10
32767,31030,3130,-43,-52,-217,22968,21920,-1586,64,-93,-28,8554,5720,-7706,99,26,6
32767,30878,3010,4,-28,-162,22846,21882,-1552,49,-82,-25,8364,5886,-7612,79,20,11
32767,31172,2742,60,-2,-134,22790,21546,-1488,53,-89,-35,8416,5922,-7614,58,-3,18
32767,31388,2616,86,-2,-59,22882,21484,-1412,57,-90,-33,8650,5806,-7804,53,-15,15
32767,31180,2658,59,11,-56,22942,21650,-1314,71,-81,-18,8828,5734,-7854,63,1,9
32767,31474,2562,45,0,-73,22708,21856,-1372,98,-65,-4,8944,5780,-7924,60,29,3
32767,31314,2568,-39,3,-84,22618,21988,-1312,95,-83,2,8750,5804,-7944,20,62,0
32767,30938,2438,-66,-15,-77,22762,22168,-1228,75,-91,1,8622,5854,-7812,5,59,3
32767,30718,2394,-42,-18,-111,22950,22068,-1376,54,-70,11,8600,5804,-7722,15,36,9
32767,30598,2490,5,-16,-106,22740,21960,-1182,17,-54,17,8700,5702,-7688,26,34,15
32767,30838,2312,55,-19,-117,22794,21918,-1222,34,-55,18,8694,5566,-7672,22,44,10
32767,31412,2470,90,-48,-60,22748,21968,-1234,46,-60,19,8544,5454,-7712,40,50,5
32767,31686,2522,32,-56,-44,22592,22024,-1252,41,-65,22,8508,5538,-7774,91,36,8
32767,31182,2828,-33,-53,-38,22706,22008,-1312,41,-80,35,8612,5774,-7758,128,32,14
32767,30948,2768,-16,-58,-35,22804,22060,-1326,29,-88,46,8582,6050,-7714,115,48,13
32767,31064,2568,50,-43,-42,22992,21872,-1254,-5,-79,50,8468,6136,-7622,85,46,14
32767,31372,2670,67,-42,-37,23006,21786,-1302,-19,-57,45,8468,6096,-7858,57,32,16
32767,31448,2618,42,-41,-22,22868,21864,-1288,-8,-40,30,8622,6046,-7898,42,36,17
32767,31288,2728,2,-44,-22,22720,21896,-1300,4,-33,33,8714,6010,-7956,23,56,14
32767,31296,2688,-15,-37,-26,22736,21910,-1260,20,-36,45,8762,5960,-7840,-7,74,4
32767,31094,2858,1,-27,-36,22838,21846,-1304,30,-32,59,8548,5880,-7794,-44,89,-6
32767,31182,2762,37,-12,-45,22888,21948,-1102,49,-29,66,8532,5798,-7698,-61,79,-1
32767,31244,2648,74,-10,-51,22920,22110,-1066,39,-25,57,8572,5702,-7706,-45,61,10
32767,31462,2528,43,-22,-32,22848,22200,-1104,26,-19,49,8462,5722,-7724,-16,60,7
32767,31474,2476,-34,-36,-24,22642,22272,-1046,3,-20,47,8504,5722,-7790,8,54,7
32767,31078,2524,-89,-47,-11,22644,22188,-1070,-28,-42,65,8536,5690,-7788,22,45,5
32767,30736,2474,-65,-48,-21,22880,22132,-1102,-47,-48,77,8524,5626,-7784,40,43,1
32767,31046,2664,35,-49,-10,22866,22054,-1110,-62,-49,80,8528,5632,-7798,69,43,5
32767,31424,2642,63,-49,11,22906,22118,-1200,-61,-46,74,8462,5750,-7644,96,36,13
32767,31332,2662,21,-45,32,23098,22184,-1308,-73,-31,67,8376,5876,-7804,112,27,26
32767,31274,2770,-7,-42,28,23020,22344,-1362,-92,-17,82,8522,6022,-7854,109,7,28
32767,31314,2930,-31,-33,30,22990,22418,-1416,-123,-4,82,8644,5984,-7832,82,6,14
32767,31538,3064,-31,-27,41,22882,22352,-1318,-174,10,66,8660,5974,-7710,37,16,-7
32767,31538,3018,-47,-9,46,23012,22334,-1436,-203,1,62,8548,6016,-7746,-8,23,-18
32767,31402,3042,-59,6,52,23070,22042,-1264,-224,9,47,8506,6080,-7766,-35,25,-16
32767,31308,2738,-77,17,70,22974,21966,-1306,-192,8,32,8484,6166,-7752,-61,20,-9
32767,31528,2560,-86,16,92,22880,21882,-1268,-96,-17,47,8598,6078,-7774,-91,13,-11
32767,31532,2508,-91,1,85,22976,22042,-1070,-43,-32,36,8714,5970,-7790,-112,16,-22
32767,31616,2574,-123,-14,129,22980,22308,-1334,-15,-27,56,8710,5966,-7856,-139,38,-35
32767,31638,2526,-184,-26,124,22684,22422,-1256,-39,-33,76,8620,5952,-7918,-159,38,-34
32767,31066,2686,-214,-29,129,22818,22414,-1138,-72,-53,51,8654,5960,-7922,-166,32,-23
32767,31250,2612,-188,-46,119,22970,22418,-1230,-131,-44,27,8646,5930,-7952,-154,32,-7
32767,31266,2584,-193,-52,83,22820,22236,-1356,-164,-22,50,8658,5768,-7938,-130,33,1
32767,30866,2720,-180,-53,95,22468,21854,-1438,-148,-32,64,8666,5746,-7984,-101,37,11
32767,30898,2726,-132,-46,45,22712,21680,-1204,-123,-61,32,8562,5582,-7882,-76,38,15
32767,31148,2678,-73,-44,81,23018,21998,-1416,-34,-62,62,8486,5558,-7814,-56,25,13
32767,31336,2676,-34,-41,115,23068,22158,-1292,-17,-57,84,8536,5610,-7912,-10,4,20
32767,31662,2968,-76,-39,95,23008,22452,-1502,-3,-48,63,8584,5824,-7844,23,5,27
32767,31392,2858,-164,-32,55,22722,22586,-1334,-64,-38,36,8510,5990,-7738,2,16,25
32767,31152,2676,-169,-36,75,22842,22638,-1138,-117,-41,10,8464,6046,-7786,-46,12,17
32767,31168,2710,-122,-26,86,22800,22482,-1528,-105,-26,52,8622,5986,-7898,-73,4,14
32767,31158,2572,-122,-21,76,22778,22112,-1140,-144,-35,62,8726,5878,-8024,-86,13,10
32767,30988,2656,-89,-16,130,22986,22150,-1396,-109,-41,41,8736,5804,-7978,-116,39,4
32767,31252,2700,-46,3,103,22976,22178,-1328,-116,-34,70,8610,5828,-7902,-137,43,-1
32767,31684,2568,-54,-2,110,22672,22054,-1324,-85,-39,70,8464,5840,-7918,-115,28,7
32767,31434,2340,-119,-16,101,22866,22128,-1406,-71,-57,62,8554,5758,-7988,-69,22,34
32767,31144,2474,-196,-32,60,22964,22214,-1322,-42,-52,82,8592,5644,-7896,-79,27,26
32767,31510,2514,-152,-47,116,22900,22266,-1270,-58,-46,81,8550,5564,-7888,-73,37,14
32767,31612,2728,-79,-18,24,22852,22308,-1368,-69,-42,73,8558,5688,-7976,-47,34,12
32767,31968,2658,-53,-35,84,22670,22172,-1324,-103,-43,62,8624,5804,-7932,-31,29,24
32767,32034,2568,-120,-28,93,22772,22018,-1358,-114,-55,40,8686,5968,-7972,-56,34,30
32767,31696,2652,-170,-28,85,22946,22120,-1230,-86,-52,58,8704,5896,-7996,-85,44,31
32767,31168,2592,-155,-32,97,23058,22274,-1334,-83,-37,76,8612,5798,-7962,-97,50,21
32767,31082,2686,-78,-26,138,22758,22374,-1290,-82,-21,67,8598,5770,-8002,-106,58,12
32767,31326,2516,-51,-22,128,22628,22324,-1368,-131,-30,34,8592,5764,-7892,-112,59,17
32767,31316,2604,-67,-27,125,22872,22148,-1224,-165,-29,18,8616,5746,-7922,-101,58,14
32767,31044,2426,-88,-38,143,22950,21916,-1290,-132,-36,24,8580,5706,-7948,-89,60,7
32767,31048,2558,-114,-41,100,22740,21636,-1094,-145,-32,3,8512,5646,-7892,-92,60,-10
32767,31146,2616,-68,-33,129,22736,21812,-1264,-48,-52,11,8470,5638,-7750,-112,65,-20
32767,32000,2550,-54,-29,104,22800,21964,-1172,-9,-60,24,8340,5638,-7936,-129,57,-14
32767,32208,2510,-94,-26,95,22900,22238,-1228,18,-69,29,8338,5678,-7960,-102,42,-3
32767,31844,2530,-199,-43,101,22958,22526,-1266,-7,-63,11,8570,5788,-8026,-71,32,-10
32767,30720,2420,-263,-46,88,22872,22728,-1324,-61,-48,9,8700,5730,-8000,-100,45,-23
32767,30584,2472,-204,-35,146,22792,22494,-1342,-118,-37,16,8584,5652,-8018,-114,63,-24
32767,30632,2580,-135,-28,30,22936,22290,-1358,-119,-46,11,8376,5522,-7974,-113,60,-22
32767,30850,2584,-106,-28,80,22928,22056,-1302,-130,-41,-4,8400,5412,-8008,-98,48,-22
32767,31272,2690,-53,-25,70,23008,22060,-1242,-94,-39,3,8478,5324,-7970,-78,33,-25
32767,31364,2618,-61,-7,86,22910,22104,-1314,-79,-41,8,8530,5288,-7990,-39,29,-20
32767,31566,2770,-75,-5,67,23014,22216,-1326,-71,-42,7,8402,5474,-7960,3,31,-16
32767,31764,2526,-123,-4,71,22900,22198,-1312,-85,-39,5,8444,5712,-8062,22,14,-20
32767,31614,2454,-163,-8,75,22854,22164,-1172,-128,-32,-5,8532,5746,-8028,12,9,-25
32767,31682,2456,-182,-3,82,22878,21950,-1192,-132,-37,-9,8746,5808,-8132,-5,25,-28
32767,31130,2430,-165,-5,80,22914,21752,-1130,-111,-49,-14,8680,5876,-8106,-40,49,-29
32767,31058,2348,-125,-1,88,23060,21714,-1106,-68,-47,-16,8576,5790,-8050,-78,58,-31
32767,31472,2386,-94,-8,75,22918,22064,-1138,-16,-38,-5,8620,5596,-8082,-102,52,-33
32767,31728,2444,-140,-12,57,22738,22224,-1180,-25,-41,-7,8584,5460,-8048,-100,48,-37
32767,31576,2472,-182,-30,64,22682,22312,-1182,-41,-55,-5,8616,5468,-8016,-91,52,-38
32767,31424,2520,-237,-42,64,22968,22304,-1204,-60,-66,-7,8552,5428,-7980,-87,50,-42
32767,31012,2386,-241,-42,72,23224,22222,-1194,-76,-60,-21,8598,5338,-8056,-74,38,-43
32767,30492,2434,-169,-41,66,23186,22128,-1242,-103,-41,-33,8582,5314,-7978,-44,42,-38
32767,30860,2514,-67,-30,62,23058,22098,-1260,-108,-24,-29,8340,5424,-8018,-9,44,-34
32767,31552,2604,-50,-34,60,22758,22052,-1280,-109,-19,-20,8380,5496,-8018,3,29,-32
32767,31678,2518,-130,-38,54,22748,21870,-1180,-72,-53,-21,8500,5404,-8016,5,7,-37
32767,31508,2616,-175,-48,63,23076,21830,-1030,-39,-71,-40,8608,5446,-8022,9,10,-49
32767,31170,2688,-184,-29,63,23210,21896,-1082,-9,-66,-38,8622,5522,-8082,4,36,-55
32767,30948,2638,-132,-20,60,23092,21982,-1166,12,-52,-25,8488,5636,-8044,-15,46,-53
32767,31104,2474,-92,-15,41,22842,22134,-1144,33,-51,-18,8472,5672,-7904,-36,19,-42
32767,31608,2370,-106,-28,32,22784,22328,-1126,30,-58,-14,8674,5568,-7950,-41,5,-43
32767,31698,2378,-177,-45,30,22942,22122,-1102,-22,-74,-21,8814,5450,-8140,-42,14,-51
32767,31424,2496,-226,-62,37,23018,21894,-1202,-27,-75,-38,8804,5382,-8288,-54,48,-61
32767,31036,2540,-223,-61,38,23012,21878,-1146,-10,-67,-36,8632,5394,-8176,-71,76,-55
32767,30474,2516,-148,-41,27,22866,21946,-1182,21,-61,-29,8396,5276,-8046,-77,72,-39
32767,30712,2420,-41,-35,10,22798,21992,-1206,48,-71,-35,8432,5238,-7900,-43,40,-31
32767,31446,2524,16,-37,6,22988,22068,-1128,25,-68,-47,8518,5218,-8014,20,15,-26
32767,31890,2634,-31,-44,4,23042,21818,-1068,-8,-48,-58,8660,5256,-8144,57,21,-22
32767,31786,2678,-116,-52,8,22804,21828,-1268,7,-47,-68,8638,5308,-8236,43,43,-24
32767,31016,2662,-139,-48,6,22750,21692,-1164,19,-59,-72,8488,5354,-8106,26,50,-24
32767,30616,2650,-69,-33,-6,22936,21694,-1038,65,-73,-84,8402,5448,-8012,22,38,-20
32767,30904,2546,8,-20,-9,22878,21724,-1040,105,-74,-96,8476,5468,-8062,24,23,-12
32767,31672,2538,0,-34,-15,22838,21834,-994,106,-76,-99,8498,5408,-8094,25,21,-12
32767,31508,2432,-102,-37,-29,22852,21724,-998,105,-68,-94,8628,5262,-8150,16,32,-15
32767,30894,2452,-140,-38,-44,22774,21700,-1032,104,-68,-108,8532,5302,-8064,-11,46,-24
32767,30478,2328,-81,-36,-54,22802,22052,-1164,156,-80,-82,8360,5166,-8076,-24,37,-25
32767,30766,2430,-18,-33,-39,23036,22146,-1022,157,-90,-85,8498,5172,-8162,6,19,-19
32767,30926,2436,26,-28,-76,23204,22290,-1166,135,-76,-122,8596,5162,-8192,40,9,-9
32767,30992,2536,6,-44,-49,23034,22360,-1114,66,-63,-143,8686,5200,-8152,55,30,1
32767,30658,2508,-62,-39,-69,22920,22210,-1238,43,-52,-116,8532,5188,-8112,67,41,-1
32767,30220,2490,-2,-30,-128,23018,22016,-1028,14,-51,-121,8334,5194,-7942,65,30,-10
32767,30548,2398,41,-18,-155,23050,21968,-1036,46,-40,-131,8350,5212,-7958,78,0,-8
32767,30800,2734,56,2,-176,22912,22098,-1258,67,-49,-109,8432,5142,-8026,90,-11,-4
32767,31500,2954,79,-14,-108,22822,22126,-1256,117,-69,-75,8412,5238,-8160,107,-7,-5
32767,31906,2622,48,6,-185,22998,22320,-1132,96,-83,-84,8416,5440,-8118,118,-14,5
32767,31084,2618,6,1,-123,23054,22486,-1270,57,-70,-69,8494,5594,-8014,116,-17,21
32767,30578,2500,-21,15,-160,22846,22392,-1142,18,-60,-53,8668,5562,-7940,86,-21,16
32767,30942,2544,28,-2,-122,22782,22230,-1386,12,-77,-49,8574,5528,-7994,68,-13,6
32767,31430,2304,45,-13,-185,22864,22036,-1248,5,-85,-48,8460,5510,-7916,46,-7,-1
32767,31038,2120,-5,-17,-116,23122,22034,-1280,29,-83,-49,8490,5436,-7954,18,-11,8
32767,31274,2604,-22,-33,-84,23016,22274,-1464,67,-64,-23,8596,5368,-8146,11,-22,14
32767,31776,2506,2,-13,-145,22770,22210,-1492,105,-71,-16,8774,5278,-8086,41,-12,8
32767,31648,2706,15,-8,-156,22910,22338,-1358,105,-88,-46,8622,5380,-8036,36,9,-2
32767,31376,2572,14,-12,-116,23110,22232,-1374,94,-85,-45,8476,5448,-7962,10,14,-1
32767,31580,2386,19,-9,-112,23188,22094,-1226,65,-79,-29,8466,5392,-8020,-6,-3,1
32767,32018,2562,-8,-9,-89,23082,22018,-1202,74,-63,-18,8680,5346,-8128,12,-2,8
32767,31620,2426,-34,-2,-116,23014,22062,-1104,82,-70,-8,8722,5382,-8164,30,19,7
32767,31188,2350,-5,11,-89,22994,22062,-1014,79,-66,-8,8574,5498,-8022,26,42,2
32767,31402,2332,53,-6,-44,22956,22100,-980,84,-75,-15,8460,5528,-8118,30,44,2
32767,31774,2284,31,-13,-47,22834,22104,-1014,85,-84,-15,8720,5508,-8414,60,36,20
32767,31466,2252,-54,-20,-91,22988,22030,-892,91,-102,-17,8884,5436,-8254,54,62,22
32767,30842,2264,-41,-25,-89,23156,22110,-986,79,-86,-16,8798,5328,-8066,31,99,13
32767,30758,2202,63,-26,-110,23126,22198,-866,53,-65,1,8560,5234,-7982,16,103,5
32767,31540,2300,146,-40,-71,22988,22310,-1016,12,-42,9,8442,5216,-7960,41,76,16
32767,31720,2380,113,-44,-61,22792,22384,-1032,-3,-50,2,8498,5322,-8044,78,54,25
32767,31672,2502,44,-60,-62,22830,22324,-922,-37,-62,-14,8598,5402,-8084,102,52,28
32767,31286,2642,7,-66,-62,23024,22046,-1048,-38,-77,-19,8550,5584,-8098,98,60,28
32767,31240,2746,18,-66,-52,23060,21992,-962,-42,-67,-13,8556,5626,-8126,77,66,25
32767,31048,2822,14,-56,-53,23016,21964,-1216,-23,-52,0,8374,5562,-8026,26,71,12
32767,31024,2708,45,-40,-64,22810,22128,-1080,-4,-51,-6,8320,5488,-7806,-14,57,4
32767,31286,2622,80,-30,-56,23004,22208,-1184,-12,-66,-17,8294,5452,-7864,-36,37,1
32767,31896,2530,67,-37,-41,23108,22216,-1142,-18,-62,-21,8372,5406,-7922,-25,15,2
32767,31952,2714,-40,-52,-11,23022,22088,-1194,-31,-53,-24,8544,5498,-8156,-7,17,11
32767,31234,2662,-153,-56,-15,22924,21942,-1212,-34,-58,-35,8622,5526,-8238,-14,30,12
32767,30608,2798,-123,-41,-16,23006,21928,-1074,-7,-69,-37,8458,5558,-8174,-44,49,8
32767,30860,2706,-29,-18,-17,23094,22004,-1098,-1,-59,-30,8264,5488,-8024,-89,42,0
32767,31424,2554,16,-7,-7,22954,22138,-1120,-3,-51,-20,8416,5290,-8052,-88,5,1
32767,31990,2510,-26,-15,-1,22816,22118,-1042,11,-53,-22,8662,5264,-8194,-47,-6,3
32767,31332,2494,-138,-20,5,22944,22192,-998,5,-63,-37,8736,5284,-8350,-14,16,5
32767,30766,2524,-139,-24,-4,22932,22146,-1138,22,-57,-24,8570,5354,-8248,-10,43,6
32767,30790,2416,-66,-22,-9,23042,22064,-1060,5,-65,-36,8380,5310,-8188,-8,35,10
32767,30974,2496,-45,-31,-35,23166,22162,-1158,14,-57,-41,8496,5336,-8154,7,6,12
32767,31100,2428,-55,-24,-30,22960,22148,-1116,-30,-43,-26,8656,5354,-8116,15,6,5
32767,30950,2336,-39,-30,-18,22890,22248,-1072,-33,-43,-28,8570,5384,-8076,3,21,-5
32767,31280,2482,-34,-31,-25,22966,22072,-1114,5,-45,-1,8406,5404,-8124,-1,16,-6
32767,31268,2474,-53,-34,-25,23128,22112,-1198,50,-56,-15,8424,5368,-8136,20,6,3
32767,31344,2678,-83,-38,-42,22946,22398,-1322,58,-55,-16,8514,5476,-8178,29,13,7
32767,31082,2576,-67,-36,-26,22942,22522,-1292,39,-56,-8,8544,5492,-8048,27,21,-1
32767,30972,2540,-31,-26,-47,22918,22606,-1216,19,-48,-17,8602,5568,-7946,7,20,-12
32767,31206,2464,-1,-21,-35,22854,22440,-1276,-25,-53,-20,8554,5498,-8024,-15,20,-8
32767,31268,2492,-25,-16,-63,22902,22088,-1176,-29,-54,-17,8466,5328,-8068,-30,15,-5
32767,31724,2460,-76,-36,-37,23206,21930,-1030,-37,-47,-20,8470,5284,-8072,-30,6,-8
32767,31620,2506,-105,-39,-19,23106,21914,-1130,-20,-18,-10,8526,5348,-8288,5,12,-9
32767,31210,2530,-96,-38,2,22724,21922,-1140,28,-23,1,8586,5508,-8386,28,17,1
32767,30790,2434,-53,-24,1,22842,22236,-1092,75,-50,-11,8596,5632,-8314,32,29,6
32767,31064,2428,24,-19,-21,23076,22356,-1164,86,-55,2,8486,5632,-8196,7,32,2
32767,31648,2406,25,-18,-34,23024,22390,-1110,57,-53,15,8500,5438,-8202,-11,22,0
32767,31946,2348,-61,-37,-32,23114,22376,-1110,10,-50,6,8650,5294,-8334,-9,33,-1
32767,31112,2472,-120,-41,-32,23116,22366,-1126,-17,-35,0,8638,5280,-8200,5,56,-4
32767,30804,2382,-62,-33,-46,22968,22254,-1156,-30,-27,-4,8468,5384,-8036,5,67,-13
32767,30964,2324,9,-25,-54,22822,22162,-1064,-10,-40,-7,8318,5466,-7986,-14,39,-10
32767,31476,2344,43,-32,-39,23010,22182,-1138,6,-54,-1,8524,5438,-8134,-1,20,-3
32767,31600,2416,-9,-49,-21,23116,22240,-1078,16,-41,14,8618,5404,-8318,23,35,-1
32767,31286,2576,-88,-53,-22,22916,22286,-1036,17,-42,7,8658,5416,-8338,18,62,-6
32767,30872,2620,-78,-43,-27,23016,22432,-1126,-2,-48,-1,8524,5336,-8220,-14,76,-18
32767,30856,2552,14,-26,-35,23076,22458,-1066,-7,-39,8,8428,5346,-8048,-32,64,-25
32767,31550,2540,59,-15,-40,23016,22448,-1066,-17,-36,11,8450,5342,-7944,-29,44,-15
32767,31622,2586,14,-19,-29,22784,22460,-1050,-15,-38,22,8504,5378,-8064,-4,34,1
32767,31530,2486,-66,-35,-15,22878,22516,-1024,-1,-51,43,8604,5358,-8248,29,40,8
32767,31080,2580,-106,-36,-16,23100,22632,-1040,8,-66,49,8570,5434,-8232,15,43,-6
32767,30850,2570,-59,-32,-19,23328,22624,-1216,-22,-53,42,8570,5450,-8222,-18,42,-21
32767,31206,2528,13,-27,-15,23080,22518,-1310,-49,-41,45,8472,5480,-8224,-38,37,-19
32767,31624,2568,7,-26,-18,22896,22436,-1202,-74,-53,44,8464,5408,-8134,-41,32,-4
32767,31566,2596,-53,-30,-11,23148,22414,-1268,-84,-56,34,8440,5404,-8078,-36,31,8
32767,31248,2524,-82,-27,-1,23086,22464,-1294,-108,-38,30,8364,5346,-8082,-26,24,10
32767,31120,2532,-54,-30,0,22958,22648,-1206,-151,-19,40,8388,5282,-8246,-12,10,9
32767,31472,2620,-25,-26,-5,22790,22610,-1234,-158,-16,58,8452,5332,-8234,2,13,10
32767,31766,2716,-32,-14,-9,22952,22454,-1200,-159,-28,48,8564,5444,-8244,14,34,12
32767,31710,2708,-53,-2,-6,23180,22298,-1276,-140,-20,57,8554,5546,-8200,10,43,17
32767,31544,2626,-66,12,-23,23126,22092,-1228,-123,-24,64,8558,5670,-8222,2,28,22
32767,31560,2524,-53,12,-8,23258,22132,-1174,-94,-24,51,8610,5588,-8284,-14,20,26
32767,31544,2504,-64,4,-9,23232,22348,-1116,-77,-17,59,8698,5506,-8242,-36,35,24
32767,31544,2392,-90,-2,5,23068,22474,-992,-79,-13,56,8578,5382,-8288,-66,54,14
32767,32050,2384,-137,-24,28,23024,22516,-1140,-71,-19,53,8358,5316,-8210,-85,58,-3
32767,32156,2380,-301,-42,59,23060,22398,-934,-84,-28,53,8358,5338,-8254,-88,47,-22
32767,31734,2286,-410,-67,67,23014,22112,-986,-75,-24,39,8440,5370,-8350,-72,50,-16
32767,31010,2338,-447,-53,67,22980,22032,-1022,-45,-39,43,8636,5440,-8420,-73,61,-10
32767,30364,2292,-319,-35,56,23046,22240,-1044,6,-50,53,8704,5512,-8414,-90,70,-4
32767,30516,2292,-156,-26,71,23088,22458,-946,29,-55,59,8710,5496,-8250,-102,80,-3
32767,31286,2288,-92,-33,64,23054,22796,-948,12,-53,52,8552,5436,-8246,-109,84,-4
32767,31612,2382,-143,-35,77,23172,22886,-1106,-35,-35,61,8474,5338,-8288,-100,81,5
32767,31390,2296,-250,-69,82,23128,22728,-1188,-81,-33,72,8414,5250,-8374,-77,73,14
32767,30750,2428,-253,-64,83,23060,22492,-926,-144,-43,31,8406,5224,-8338,-52,69,19
32767,30102,2686,-180,-52,83,23390,22482,-1384,-113,-21,52,8436,5324,-8334,-32,52,25
32767,30464,2516,-56,-37,62,22828,22050,-1010,-141,-9,57,8514,5442,-8278,-22,45,31
32767,30882,2600,-9,-30,72,22812,22050,-1034,-99,-35,14,8494,5458,-8288,-25,50,37
32767,31462,2740,-26,-23,75,23084,22266,-1144,-85,-37,21,8326,5484,-8342,-31,55,44
32767,31118,2560,-84,-24,59,23010,22194,-1108,-59,-29,57,8300,5490,-8372,-41,46,39
32767,30868,2542,-101,-24,70,22852,22192,-1058,-46,-37,36,8412,5422,-8314,-53,26,28
32767,31478,2506,-44,-15,51,22954,22468,-1058,-67,-51,2,8564,5472,-8308,-63,11,20
32767,31156,2546,-65,-13,97,23080,22452,-998,-97,-31,25,8622,5514,-8318,-58,19,26
32767,31040,2504,-144,-27,102,23002,22312,-1202,-95,-18,42,8510,5682,-8374,-89,35,20
32767,30884,2276,-133,-15,149,22862,22266,-1114,-101,-30,25,8466,5630,-8456,-109,43,25
32767,31018,2374,-116,-20,64,23106,22346,-1166,-98,-30,15,8470,5470,-8390,-130,31,20
32767,30824,2290,-144,-35,85,23094,22412,-1146,-85,-25,28,8560,5258,-8292,-145,31,10
32767,30740,2486,-127,-40,74,22916,22418,-1136,-74,-23,34,8476,5148,-8310,-161,46,-2
32767,31218,2406,-87,-27,75,22950,22526,-1168,-73,-30,25,8362,5032,-8360,-131,40,7
32767,31006,2396,-132,-32,57,23120,22550,-1216,-100,-22,24,8398,5044,-8362,-70,22,20
32767,31044,2542,-159,-30,55,22908,22166,-1202,-146,-18,-1,8382,5162,-8250,-49,14,20
32767,30660,2402,-130,-25,56,23082,22070,-1226,-117,-26,13,8412,5158,-8216,-45,-1,4
32767,31076,2282,-95,-29,112,22980,22010,-1068,-85,-23,21,8506,5322,-8380,-13,-6,3
32767,31098,2470,-120,-19,64,23088,22260,-1146,-56,-31,11,8526,5446,-8418,-2,1,13
32767,31148,2424,-129,-16,49,22960,22370,-1238,-50,-27,3,8524,5530,-8398,-31,13,14
32767,31202,2356,-130,-19,59,23086,22534,-1206,-70,-20,21,8408,5460,-8368,-70,18,0
32767,30998,2284,-132,-21,76,22888,22422,-1168,-89,-19,23,8426,5456,-8372,-74,15,-11
32767,31148,2252,-144,-20,59,23004,22318,-1120,-94,-21,-4,8554,5494,-8378,-86,10,-10
32767,31068,2376,-143,-18,65,23082,22394,-1208,-73,-27,5,8670,5432,-8384,-114,24,-8
32767,30940,2348,-151,-23,61,23078,22296,-1110,-90,-17,12,8586,5294,-8344,-133,42,-8
32767,30798,2270,-161,-29,58,22738,22248,-1146,-92,-20,1,8508,5094,-8320,-124,35,-12
32767,30582,2254,-117,-24,90,22890,22350,-1180,-89,-39,3,8508,4980,-8342,-84,26,-10
32767,31056,2282,-75,-31,58,23236,22194,-1244,-84,-38,18,8526,5094,-8322,-44,17,-15
32767,31160,2316,-110,-29,67,22934,22166,-1106,-99,-30,-15,8480,5192,-8358,-27,25,-11
32767,31084,2234,-133,-47,39,22988,22282,-1260,-70,-32,6,8364,5262,-8358,-29,24,-17
32767,31010,2300,-169,-37,91,22918,22226,-1116,-85,-32,10,8384,5302,-8320,-19,18,-9
32767,30946,2378,-134,-48,56,22770,22180,-1150,-85,-30,-18,8412,5262,-8432,-10,15,1
32767,31042,2394,-137,-39,68,22918,22120,-1238,-71,-40,-4,8422,5276,-8420,-16,18,1
32767,30850,2312,-121,-40,78,23088,21968,-1134,-64,-38,7,8512,5348,-8396,-36,15,-16
32767,30982,2300,-121,-38,80,23032,22008,-1290,-47,-29,-12,8552,5346,-8354,-52,15,-18
32767,31024,2452,-158,-41,52,22868,22186,-1098,-47,-37,-19,8678,5244,-8356,-74,29,-17
32767,31008,2404,-159,-33,68,23058,22398,-1168,-38,-40,-11,8540,5198,-8348,-96,41,-14
32767,30652,2350,-140,-32,54,23076,22428,-1148,-72,-32,-16,8334,5088,-8236,-98,41,-11
32767,30618,2256,-127,-36,57,22990,22400,-1160,-104,-19,-11,8376,4992,-8300,-72,16,-23
32767,30870,2238,-90,-35,88,22872,22378,-1184,-118,-26,7,8468,5148,-8364,-34,5,-28
32767,31176,2414,-131,-42,48,22860,22236,-1074,-137,-29,2,8520,5192,-8354,-17,12,-20
32767,30896,2402,-188,-35,41,22968,22038,-1148,-141,-39,-9,8446,5154,-8290,-38,27,-20
32767,30518,2386,-150,-32,59,22992,22022,-1100,-132,-39,-11,8414,5018,-8220,-53,28,-22
32767,30650,2284,-100,-24,66,23048,21990,-1072,-104,-36,-9,8422,5024,-8366,-30,13,-22
32767,30924,2270,-72,-21,75,23126,22052,-1154,-89,-34,-21,8536,5026,-8356,-7,7,-23
32767,30878,2204,-83,-23,99,23026,22134,-1172,-77,-15,-16,8522,5048,-8304,-7,12,-34
32767,30780,2322,-78,-28,121,22834,22154,-1112,-55,-24,0,8532,5206,-8268,-11,17,-46
32767,31236,2352,-139,-38,71,22986,22216,-1058,-56,-39,-14,8498,5246,-8178,-30,18,-48
32767,31186,2482,-167,-41,63,23216,22392,-1118,-75,-32,-19,8480,5216,-8342,-49,21,-38
32767,31104,2434,-163,-45,65,23114,22306,-1144,-103,-20,-14,8578,5086,-8362,-59,21,-44
32767,31268,2386,-174,-45,69,22804,22214,-1170,-107,-29,-21,8576,5074,-8312,-60,23,-51
32767,30814,2406,-195,-42,73,22854,22060,-1156,-86,-52,-20,8542,5088,-8356,-73,32,-52
32767,31008,2316,-186,-35,79,23038,21936,-1048,-73,-49,-14,8412,5080,-8228,-88,37,-51
32767,30922,2336,-221,-34,80,22896,21858,-1172,-52,-42,-4,8376,4972,-8162,-81,20,-53
32767,30488,2182,-228,-44,65,22900,21804,-1152,-25,-54,-13,8536,5010,-8228,-50,6,-51
32767,30690,2150,-161,-40,63,23014,21886,-1146,-8,-56,-28,8664,5022,-8354,-29,4,-47
32767,30918,2350,-126,-43,64,23044,22164,-1200,-2,-44,-21,8628,4922,-8392,-17,22,-41
32767,31098,2432,-144,-49,56,22976,22270,-1148,-23,-33,-12,8454,5042,-8274,-27,28,-47
32767,31052,2394,-180,-48,50,22914,22234,-1192,-34,-34,-16,8392,5158,-8252,-29,15,-49
32767,30932,2424,-201,-56,41,22748,22072,-1130,-35,-51,-26,8598,5170,-8378,-18,3,-34
32767,30808,2470,-207,-58,37,22882,22010,-1214,-6,-67,-32,8648,5060,-8434,-22,22,-22
32767,30794,2488,-204,-55,33,23088,21948,-1148,13,-67,-39,8536,4936,-8334,-44,44,-28
32767,30656,2374,-187,-46,28,23142,22108,-1094,0,-52,-43,8438,4838,-8294,-58,42,-42
32767,30534,2302,-129,-34,30,22930,21920,-1122,-1,-39,-43,8494,4826,-8324,-50,27,-47
32767,30418,2228,-57,-28,26,22842,21842,-1284,13,-55,-45,8568,4882,-8354,-30,24,-39
32767,30596,2226,-47,-29,26,22826,21804,-1122,47,-71,-54,8536,4870,-8382,-27,33,-22
32767,31116,2150,-62,-47,24,22930,21740,-1110,81,-94,-66,8480,4776,-8382,-43,32,-22
32767,30990,2178,-114,-51,25,22974,21934,-1174,84,-77,-75,8474,4776,-8448,-33,24,-23
32767,30668,2184,-125,-58,31,22864,21958,-1262,89,-77,-64,8466,4828,-8528,4,22,-19
32767,30364,2396,-88,-47,20,22812,22002,-1188,76,-79,-80,8524,4962,-8596,29,36,-20
32767,30482,2390,-26,-40,13,22926,21994,-1146,79,-73,-90,8434,4958,-8452,21,47,-15
32767,30836,2354,-32,-33,-10,22942,21902,-1198,72,-86,-96,8392,4890,-8284,-8,41,-7
32767,30628,2168,-60,-42,-23,22892,21814,-948,88,-86,-119,8476,4728,-8302,-15,18,1
32767,30728,2226,-63,-38,-58,23034,21758,-1178,92,-84,-122,8562,4642,-8406,21,6,3
32767,30484,2276,-19,-47,-28,23030,21884,-1130,80,-60,-97,8632,4794,-8634,75,15,6
32767,30422,2494,-11,-42,-36,22860,22008,-1096,91,-42,-110,8468,4910,-8514,67,32,9
32767,30024,2340,13,-25,-63,22746,22230,-1088,98,-57,-107,8318,4862,-8292,41,30,9
32767,30144,2226,66,-27,-70,22916,22082,-968,111,-96,-93,8342,4742,-8190,41,4,3
32767,30574,2348,83,-23,-75,23096,22092,-924,105,-88,-120,8554,4670,-8210,78,-10,-2
32767,31346,2452,39,-21,-124,22978,22220,-1290,107,-77,-87,8576,4740,-8368,120,-6,-1
32767,30840,2242,-48,-28,-126,23060,22046,-1170,100,-96,-94,8620,4848,-8432,128,9,3
32767,30318,2302,-27,-43,-111,23142,22066,-1100,109,-85,-135,8546,4956,-8376,121,23,7
32767,30422,2540,2,-6,-171,22982,22236,-1314,107,-80,-107,8402,4974,-8200,98,18,-6
32767,30482,2206,99,-19,-180,22778,22190,-1168,122,-71,-65,8344,4916,-8054,67,2,-18
32767,30900,2300,91,-34,-124,22846,22244,-1168,116,-88,-65,8412,4876,-8208,63,-18,-18
32767,31278,2156,-1,-38,-145,22930,22302,-1180,112,-89,-61,8588,4828,-8382,82,-22,-5
32767,30710,2418,-47,-48,-99,23080,22350,-1176,76,-84,-69,8674,4914,-8576,103,5,4
32767,30266,2376,8,-55,-115,22950,22286,-1262,12,-52,-64,8498,5032,-8422,96,24,-3
32767,30138,2374,79,-7,-144,22788,22146,-1210,1,-55,-51,8390,5094,-8294,70,20,-8
32767,30876,2584,138,-11,-89,22880,21992,-1196,16,-64,-40,8480,5122,-8254,55,-9,-9
32767,31620,2436,111,1,-199,22956,21852,-1262,50,-74,-42,8638,4994,-8362,77,-8,11
32767,31016,2312,18,-13,-114,23146,22014,-1110,76,-86,-72,8562,4850,-8344,92,18,25
32767,30240,2304,-61,-6,-133,23064,22274,-1234,110,-76,-45,8436,4814,-8260,88,23,18
32767,30384,2094,84,-22,-141,22984,22098,-1040,68,-63,-24,8358,4800,-8146,94,7,1
32767,31452,2394,177,-23,-133,23082,22434,-1068,65,-54,-41,8496,4930,-8340,107,-12,-14
32767,31532,2592,144,-24,-101,22828,22450,-1180,43,-48,-3,8628,5082,-8398,115,-3,-6
32767,31386,2350,11,-23,-92,22812,22212,-1014,35,-65,-1,8548,5218,-8346,90,30,3
32767,31194,2214,-69,-22,-108,23084,22202,-1142,49,-85,-36,8370,5130,-8080,34,39,-4
32767,31182,2214,-33,-32,-121,23064,22258,-1194,53,-78,-23,8496,4902,-8204,5,10,-26
32767,30982,2194,24,-36,-46,22948,22054,-1276,70,-74,-6,8756,4940,-8432,28,16,-30
32767,31150,2436,27,-32,-47,23082,22082,-1146,60,-90,-25,8688,5116,-8484,41,47,-23
32767,30758,2252,-10,-17,-94,23158,22298,-1240,71,-73,-28,8514,5080,-8366,27,64,-10
32767,30602,2484,24,-35,-42,23130,22184,-1116,64,-68,-25,8388,4928,-8238,9,64,-2
32767,30998,2386,80,-33,-68,23126,22246,-1098,75,-62,-30,8318,4764,-8064,16,42,-4
32767,31482,2380,10,-24,-110,23004,22368,-1142,95,-51,-7,8464,4670,-8066,37,22,-12
32767,31270,2336,13,-50,-45,22924,22376,-1000,86,-53,9,8562,4770,-8322,71,14,-16
32767,31352,2400,51,-50,-21,23130,22470,-1054,78,-52,10,8584,5158,-8454,110,38,-7
32767,31074,2504,-14,-32,-37,23066,22540,-1024,68,-49,14,8556,5270,-8488,90,54,0
32767,30748,2512,19,-24,-33,22954,22502,-1056,40,-43,23,8528,5250,-8444,45,65,-5
32767,30978,2436,67,-16,-38,22858,22366,-1112,46,-56,32,8590,5126,-8260,11,59,-13
32767,31108,2362,48,-7,-51,22934,22328,-1204,77,-72,31,8648,5016,-8262,0,59,-23
32767,31066,2390,25,-23,-57,23076,22302,-1046,58,-69,41,8584,5000,-8380,-4,74,-17
32767,31062,2276,19,-29,-56,23166,22378,-1164,26,-58,49,8496,4916,-8346,3,76,4
32767,30930,2240,-11,-47,-54,23150,22372,-1260,-16,-36,43,8432,4814,-8386,20,68,19
32767,31024,2246,27,-56,-41,22986,22306,-1162,-41,-26,37,8446,4796,-8336,50,64,15
32767,31282,2376,71,-57,-37,22930,22210,-1228,-23,-30,26,8302,4896,-8264,81,57,10
32767,31488,2398,60,-53,-41,22918,22164,-1124,16,-47,20,8440,5024,-8386,83,47,12
32767,31568,2512,34,-58,-33,23038,22206,-1086,52,-63,20,8526,5098,-8384,73,46,23
32767,31376,2468,8,-53,-33,23278,22442,-1072,77,-57,33,8488,5176,-8454,68,57,40
32767,31232,2586,1,-50,-37,23346,22740,-1078,61,-37,36,8412,5160,-8506,57,69,48
32767,31180,2660,16,-42,-39,23072,22804,-1096,7,-18,31,8442,5114,-8434,27,69,42
32767,31162,2556,54,-20,-48,22836,22724,-988,-62,-22,28,8600,5060,-8322,-3,68,25
32767,31278,2540,66,-11,-47,22912,22428,-894,-93,-35,21,8584,4994,-8172,-31,70,11
32767,31562,2356,45,-12,-40,23176,22172,-998,-76,-41,29,8394,4996,-8272,-51,67,4
32767,31624,2332,-26,-27,-18,23090,22130,-934,-50,-42,46,8436,4952,-8516,-38,60,12
32767,31142,2328,-113,-40,-2,22974,22382,-1004,17,-50,51,8520,4972,-8558,-9,61,15
32767,30568,2344,-110,-54,5,23106,22652,-1066,33,-60,66,8496,5014,-8592,10,74,16
32767,30428,2422,-45,-46,-4,23168,22738,-1030,10,-53,51,8470,5040,-8528,4,86,16
32767,30832,2578,37,-39,-6,23192,22886,-1136,-18,-52,49,8388,4976,-8366,-5,84,12
32767,31426,2536,64,-27,5,23130,22782,-1100,-72,-45,46,8288,4966,-8270,-8,70,17
32767,31896,2390,9,-48,5,23128,22640,-1158,-83,-45,39,8328,4992,-8256,12,43,31
32767,31586,2482,-90,-61,11,23236,22678,-1142,-98,-39,42,8526,4962,-8452,45,27,34
32767,31028,2562,-131,-64,14,22938,22558,-1114,-80,-31,63,8510,5026,-8432,34,43,21
32767,30902,2648,-86,-54,28,23160,22618,-1290,-37,-51,70,8394,5182,-8408,3,45,8
32767,31044,2684,-12,-36,40,23242,22676,-1092,-60,-51,77,8372,5240,-8466,-24,35,13
32767,31468,2658,4,-37,51,23008,22624,-1054,-80,-41,64,8378,5218,-8538,-40,24,20
32767,31500,2686,-36,-25,70,23046,22810,-1206,-88,-51,78,8454,5252,-8632,-54,31,25
32767,31318,2656,-70,-24,52,23102,22842,-1256,-90,-33,103,8486,5124,-8540,-64,33,30
32767,31334,2562,-85,-18,62,22972,22678,-1232,-100,-32,107,8492,5054,-8516,-65,33,29
32767,31148,2486,-67,-22,44,23078,22680,-1108,-134,-44,79,8456,5016,-8464,-55,38,32
32767,31528,2426,-68,-22,62,23302,22684,-1230,-133,-34,82,8384,5042,-8478,-42,33,34
32767,31404,2444,-74,-28,49,23190,22600,-1214,-105,-10,93,8368,5052,-8460,-37,23,33
32767,31564,2356,-65,-36,122,22890,22762,-1124,-95,-20,85,8496,5118,-8488,-28,19,33
32767,31678,2426,-94,-38,57,22970,22688,-1068,-117,-32,67,8598,5198,-8614,-36,29,24
32767,31724,2554,-116,-35,120,23118,22656,-1160,-98,-36,69,8558,5236,-8578,-60,47,27
32767,31494,2622,-119,-33,67,23080,22456,-1040,-125,-34,53,8530,5184,-8604,-85,52,32
32767,31326,2492,-113,-31,60,23168,22342,-1202,-87,-27,47,8368,5086,-8530,-104,54,28
32767,31500,2432,-78,-39,127,22972,22332,-952,-82,-22,37,8320,5052,-8452,-113,35,1
32767,31716,2450,-36,-25,135,22956,22418,-996,-53,-23,41,8438,5096,-8562,-99,37,-4
32767,32158,2490,-71,-32,141,22972,22536,-1064,-52,-33,40,8562,5130,-8588,-98,47,11
32767,31712,2496,-164,-37,98,23048,22740,-1052,-54,-32,37,8516,5032,-8662,-113,60,20
32767,31118,2342,-156,-39,134,23306,22816,-1108,-76,-24,48,8484,5014,-8610,-120,63,14
32767,31208,2394,-112,-37,173,23302,22792,-1130,-110,10,47,8336,5102,-8530,-90,56,14
32767,31444,2116,-111,-39,136,23302,22708,-1226,-122,24,31,8454,5166,-8622,-71,42,21
32767,31602,2460,-156,-53,90,23178,22650,-1180,-126,25,8,8520,5096,-8756,-73,45,18
32767,31546,2458,-159,-72,125,22898,22496,-974,-150,23,-2,8396,5102,-8652,-91,70,11
32767,30930,2708,-196,-49,127,22780,22256,-1032,-131,6,4,8302,4972,-8598,-96,69,10
32767,30876,2486,-179,-54,95,22730,22236,-1032,-98,-7,14,8316,4988,-8528,-77,49,13
32767,30598,2188,-125,-42,97,22930,22424,-1036,-57,-31,34,8340,4996,-8566,-58,38,20
32767,30956,2312,-76,-56,108,23252,22700,-1260,-27,-30,48,8380,4944,-8584,-57,37,13
32767,31316,2406,-113,-48,71,23288,23006,-1240,-49,-11,54,8428,4874,-8562,-62,31,0
32767,31254,2628,-114,-53,69,23140,23206,-1310,-92,-11,50,8390,4820,-8586,-53,28,-8
32767,31312,2452,-108,-45,90,23226,23254,-1276,-161,-11,38,8372,4930,-8628,-37,34,-13
32767,31564,2562,-134,-34,87,23130,22980,-1268,-226,-2,32,8264,5068,-8558,-49,28,-21
32767,31484,2450,-139,-29,89,22948,22418,-1196,-249,-12,24,8216,5128,-8592,-67,3,-16
32767,31554,2238,-150,-35,96,22974,22180,-1236,-208,-31,20,8404,5200,-8654,-63,-20,-4
32767,31182,2118,-152,-50,106,23260,22384,-1250,-125,-36,51,8594,5266,-8694,-56,-30,9
32767,30860,2380,-146,-62,119,23136,22552,-1310,-60,-27,75,8612,5080,-8690,-74,-18,5
32767,31124,2644,-150,-75,71,22974,22734,-1308,-59,-35,59,8394,4832,-8640,-105,-4,-16
32767,31072,2742,-138,-68,62,23092,22894,-1294,-76,-42,46,8258,4728,-8596,-109,-9,-24
32767,31458,2724,-90,-50,94,23078,22708,-1302,-122,-30,45,8350,4640,-8428,-84,-22,-21
32767,31632,2676,-89,-22,139,22902,22402,-1234,-159,-18,39,8456,4744,-8474,-42,-27,-16
32767,31736,2414,-82,-11,159,22798,22394,-1186,-164,-22,29,8526,5072,-8612,-7,-29,-14
32767,31986,2456,-100,-11,166,23038,22444,-1346,-104,-30,53,8574,5266,-8610,-2,-23,-11
32767,31910,2468,-154,-20,149,23144,22238,-1230,-99,-29,48,8686,5434,-8644,-16,-3,-13
32767,31924,2430,-230,-33,130,23192,22268,-1132,-80,-27,5,8688,5536,-8662,-61,22,-17
32767,31628,2452,-271,-40,79,23000,22352,-1176,-86,-12,-5,8652,5354,-8642,-127,43,-16
32767,31050,2578,-253,-41,65,22774,22206,-1092,-72,-21,2,8480,4970,-8652,-186,58,-22
32767,31140,2452,-168,-40,99,22948,22376,-1112,-25,-49,-3,8398,4774,-8628,-196,56,-30
32767,31814,2420,-126,-29,116,23128,22578,-1096,-9,-49,6,8434,4658,-8686,-154,41,-31
32767,31950,2324,-176,-31,101,23268,22642,-1182,-14,-41,4,8626,4812,-8688,-92,39,-14
32767,31520,2424,-235,-33,86,23118,22680,-1198,-38,-23,-15,8566,4784,-8680,-79,63,-12
32767,31188,2328,-209,-32,92,22874,22582,-1234,-60,-30,-24,8348,4748,-8622,-76,72,-19
32767,31046,2346,-145,-34,81,22948,22466,-1150,-51,-51,-24,8316,4776,-8576,-64,59,-32
32767,31260,2308,-124,-41,90,23186,22374,-1094,-21,-58,-26,8330,4668,-8636,-52,48,-42
32767,31658,2418,-154,-53,104,23244,22412,-1136,15,-59,-28,8478,4658,-8732,-39,48,-50
32767,31164,2304,-182,-50,135,23200,22606,-1136,7,-49,-19,8492,4776,-8740,-14,58,-44
32767,30794,2316,-210,-51,86,23052,22662,-1094,4,-40,-10,8484,4948,-8638,-8,65,-37
32767,30460,2260,-189,-48,61,22916,22700,-1164,-7,-44,-12,8448,4952,-8694,-40,60,-33
32767,30764,2328,-113,-58,57,22986,22602,-1158,-12,-54,-22,8444,4732,-8608,-59,54,-50
32767,31000,2446,-94,-56,61,22958,22528,-1230,-6,-69,-30,8528,4668,-8660,-50,52,-68
32767,31156,2636,-85,-50,64,23112,22434,-1144,-2,-71,-38,8528,4674,-8714,-43,62,-76
32767,31436,2586,-98,-42,52,23200,22474,-1222,2,-51,-32,8374,4716,-8638,-36,68,-68
32767,31284,2504,-132,-36,46,23140,22538,-1204,10,-39,-28,8332,4734,-8654,-22,52,-54
32767,31190,2310,-137,-45,42,22926,22602,-1112,9,-48,-25,8510,4620,-8758,-3,34,-50
32767,30944,2446,-104,-48,43,23042,22592,-1232,4,-56,-22,8600,4622,-8840,7,47,-55
32767,31148,2554,-79,-45,38,23152,22496,-1160,-6,-57,-34,8448,4652,-8870,1,75,-59
32767,31046,2488,-66,-35,32,23238,22470,-1032,-16,-58,-49,8368,4718,-8806,4,69,-51
32767,31228,2466,-36,-34,22,23110,22542,-1136,8,-45,-35,8346,4702,-8678,1,42,-47
32767,31488,2420,-26,-37,18,22908,22526,-1116,33,-57,-24,8396,4624,-8708,-5,29,-47
32767,31782,2490,-48,-44,21,23012,22574,-1182,51,-71,-42,8464,4566,-8876,2,36,-40
32767,31500,2524,-102,-47,26,23174,22558,-1112,29,-81,-70,8486,4608,-8952,25,47,-32
32767,30992,2514,-105,-45,24,23202,22576,-1134,24,-72,-74,8488,4678,-8920,37,54,-33
32767,30978,2524,-32,-30,13,23032,22392,-1140,25,-69,-60,8342,4724,-8790,16,61,-44
32767,31298,2440,0,-28,-2,23168,22488,-1130,74,-84,-67,8302,4612,-8724,-17,56,-50
32767,31582,2312,-21,-32,2,23106,22510,-1104,78,-72,-44,8414,4490,-8702,-11,32,-40
32767,31454,2306,-43,-44,11,23110,22494,-994,48,-76,-85,8542,4376,-8784,19,36,-31
32767,31402,2526,-54,-43,7,23038,22654,-1236,49,-79,-94,8392,4416,-8914,29,56,-36
32767,31422,2454,-55,-37,-10,22918,22460,-968,24,-75,-69,8368,4554,-8814,22,52,-40
32767,31246,2442,-67,-32,-18,22998,22158,-954,45,-87,-92,8404,4590,-8752,18,32,-37
32767,31192,2478,-47,-37,-2,23112,22300,-1056,64,-92,-114,8520,4644,-8860,26,24,-29
32767,31500,2522,-2,-43,8,23238,22430,-1094,81,-81,-76,8494,4602,-8910,32,35,-24
32767,31514,2542,-22,-43,-10,23156,22400,-1036,72,-63,-76,8448,4554,-8902,37,46,-15
32767,31212,2548,-65,-35,-40,23116,22954,-1174,77,-61,-92,8390,4484,-8882,20,44,-9
32767,31022,2518,-66,-32,-54,22802,22648,-1128,37,-69,-81,8458,4480,-8748,19,36,-10
32767,31014,2532,-15,-33,-43,22936,22286,-898,29,-101,-131,8474,4422,-8754,34,29,-6
32767,31226,2418,15,-31,-57,23370,22196,-1102,48,-98,-153,8404,4404,-8704,59,25,-1
32767,31664,2666,-5,-32,-60,23346,22312,-1136,68,-84,-111,8374,4540,-8834,78,28,3
32767,31698,2556,22,-31,-90,23006,22294,-962,88,-56,-88,8282,4616,-8834,71,23,2
32767,31454,2508,-1,-39,-76,22890,22704,-1036,115,-71,-101,8434,4566,-8728,57,8,0
32767,31150,2572,-61,-33,-82,22864,22846,-1118,89,-71,-103,8520,4550,-8818,48,10,-4
32767,30998,2610,8,-35,-121,23160,22602,-1194,70,-88,-97,8406,4492,-8790,45,25,-4
32767,30992,2486,29,-41,-52,23218,22416,-1180,48,-90,-110,8300,4452,-8738,54,24,-3
32767,31444,2798,-28,-11,-112,23232,22598,-1122,43,-64,-98,8334,4458,-8602,48,9,-10
32767,31586,2578,34,-3,-165,22934,22580,-1424,72,-53,-54,8326,4496,-8680,41,-1,-14
32767,31274,2358,85,-23,-109,22816,22572,-1280,67,-76,-57,8412,4446,-8650,48,-11,-8
32767,31656,2320,6,-29,-80,23156,22678,-1194,63,-90,-86,8518,4588,-8886,70,-20,-5
32767,31136,2330,-36,-47,-58,23250,22616,-1316,61,-88,-71,8560,4650,-9080,94,-10,8
32767,30712,2620,-85,-30,-137,23204,22464,-1046,25,-70,-67,8542,4682,-8980,81,11,9
32767,29954,2460,-27,-26,-80,23054,22478,-1162,43,-49,-60,8420,4588,-8664,31,21,1
32767,31626,2706,43,3,-170,22950,22478,-1254,61,-66,-41,8308,4496,-8552,11,1,0
32767,31494,2210,114,-17,-190,22872,22606,-1112,72,-79,-42,8256,4318,-8504,43,-22,11
32767,32286,2424,59,-47,-82,23184,22756,-1130,86,-90,-41,8458,4446,-8816,93,-37,9
32767,32112,2746,-73,-29,-164,23246,22790,-1230,107,-81,-27,8552,4444,-8810,101,-23,8
32767,31800,2848,-115,-16,-139,22994,22508,-1358,101,-85,-37,8506,4596,-8830,82,8,4
32767,31022,2650,-14,2,-208,22954,22454,-1312,133,-108,-65,8336,4670,-8688,55,20,0
32767,31500,2276,73,-2,-174,23138,22588,-1184,149,-118,-51,8266,4674,-8572,29,5,-6
32767,31940,2476,123,-13,-93,23330,22618,-1194,121,-76,-11,8558,4626,-8782,25,-23,-9
32767,32460,2486,31,-13,-122,23048,22808,-1176,149,-76,2,8760,4464,-8912,39,0,-4
32767,31742,2440,-80,-22,-104,22882,22810,-1202,117,-82,-10,8698,4466,-8874,33,43,-2
32767,30682,2336,-73,-19,-83,23098,22646,-1162,107,-98,-27,8450,4556,-8714,16,63,-7
32767,30606,2306,35,-9,-98,23374,22548,-1014,90,-106,-45,8242,4524,-8478,11,43,-17
32767,31284,2224,79,-15,-77,23414,22556,-902,49,-77,-37,8324,4492,-8594,28,4,-20
32767,32228,2488,95,-20,-101,23298,22560,-858,37,-46,-8,8622,4476,-8790,58,-5,-7
32767,32280,2536,-22,-30,-96,23074,22720,-808,46,-30,0,8666,4492,-8922,68,34,1
32767,31306,2510,-57,-30,-70,22694,22824,-788,31,-42,-1,8344,4590,-8950,55,71,-6
32767,31048,2404,7,-38,4,23050,22752,-818,19,-63,0,8396,4734,-8874,68,54,4
32767,31418,2396,16,-6,-75,23420,22696,-892,-14,-63,-2,8730,4736,-9042,99,43,22
32767,31468,2386,24,-14,-111,23282,22550,-1020,-30,-48,3,8788,4600,-8890,102,83,29
32767,30986,2434,71,-15,-102,22940,22468,-1116,-7,-56,0,8544,4464,-8636,60,121,15
32767,31548,2342,141,-14,-117,22940,22514,-1202,26,-74,-5,8220,4320,-8572,36,105,5
32767,32516,2328,139,-24,-101,23044,22602,-1298,76,-89,-7,8170,4364,-8684,69,63,8
32767,32208,2410,82,-36,-59,23096,22740,-1268,113,-88,7,8538,4610,-9004,128,46,20
32767,31304,2356,8,-42,-66,23272,22848,-1270,93,-74,27,8752,4832,-8966,136,71,25
32767,30876,2488,39,-26,-82,23148,22918,-1180,81,-68,30,8508,4876,-8656,53,115,10
32767,31168,2466,100,-27,-80,23166,22994,-1242,43,-73,12,8088,4800,-8464,-18,101,-4
32767,31868,2406,116,-42,-70,23254,22754,-1130,22,-69,-4,8054,4604,-8458,-45,54,-6
32767,32328,2402,64,-61,-42,23408,22684,-1038,12,-75,-18,8184,4552,-8654,-19,27,2
32767,32022,2668,-14,-70,-16,23356,22630,-1066,10,-47,-20,8348,4558,-8904,16,29,13
32767,31552,2790,-44,-68,-12,23144,22638,-942,38,-51,2,8502,4622,-8778,6,44,0
32767,31314,2826,-47,-40,-18,23278,22968,-818,60,-57,7,8438,4662,-8788,-35,52,-12
32767,31548,2728,-3,-18,-16,23212,23128,-906,62,-49,21,8404,4710,-8824,-56,43,-8
32767,31754,2698,-11,-14,-10,23094,23206,-872,31,-55,31,8410,4678,-8938,-44,37,5
32767,31590,2602,-46,-16,-2,23224,23144,-894,-7,-55,25,8500,4614,-9026,-30,45,4
32767,31306,2524,-51,-11,-2,23104,23050,-1062,-45,-46,25,8610,4476,-8992,-29,69,-3
32767,31176,2456,2,-3,-12,23088,22812,-1038,-66,-46,28,8594,4360,-8960,-30,96,-12
32767,31536,2354,65,8,-27,23202,22740,-1146,-55,-50,29,8456,4306,-9012,-18,95,-24
32767,32124,2244,77,3,-26,23068,22890,-1116,-30,-42,42,8380,4386,-9022,0,87,-25
32767,32030,2456,23,0,-25,23094,23020,-1282,-34,-42,42,8368,4468,-9076,18,74,-15
32767,31638,2306,-13,-14,-20,23214,23062,-1272,-66,-37,42,8474,4634,-9122,25,73,-5
32767,31206,2500,-17,-18,-15,23298,22980,-1368,-97,-28,46,8386,4616,-8962,-7,75,1
32767,31282,2344,37,-27,-13,23272,22906,-1308,-98,-14,45,8304,4502,-8886,-25,63,6
32767,31754,2432,69,-37,-4,23304,22946,-1314,-68,-21,45,8314,4340,-8952,-5,40,13
32767,32016,2610,44,-46,0,23488,22988,-1192,-46,-28,39,8234,4428,-8924,31,36,18
32767,32056,2600,-4,-47,3,23418,23030,-1028,-38,-22,35,8216,4580,-8888,52,34,26
32767,31930,2822,-15,-43,-1,23274,23070,-1080,-32,-23,40,8240,4720,-8902,42,25,39
32767,31944,2824,-6,-36,0,23244,23022,-934,-35,-29,39,8248,4812,-8922,11,11,39
32767,32126,2650,-29,-23,7,23268,23082,-944,-1,-49,46,8424,4718,-8940,-17,9,31
32767,31874,2596,-67,-11,13,23370,23126,-918,-5,-61,52,8508,4706,-8910,-51,28,28
32767,31664,2560,-77,-8,20,23352,23168,-946,-2,-60,59,8338,4634,-9010,-75,43,33
32767,31660,2448,-47,-3,25,23318,23072,-754,-71,-51,46,8212,4508,-9012,-90,43,33
32767,32014,2420,-29,-7,27,23436,23196,-984,-67,-33,84,8388,4376,-9052,-83,15,15
32767,32152,2452,-60,-7,37,23258,23196,-930,-85,-19,100,8504,4434,-8988,-62,8,-12
32767,32122,2362,-120,-7,42,23030,23176,-922,-69,-37,94,8540,4540,-9046,-63,26,-26
32767,31742,2238,-145,-5,58,23532,23322,-1020,-94,-54,81,8462,4502,-9094,-72,42,-18
32767,31634,2170,-93,-11,75,23644,23332,-1074,-81,-30,106,8430,4524,-9140,-59,41,1
32767,31960,2188,-81,-26,76,23110,23056,-1140,-114,-32,103,8650,4596,-9130,-16,34,13
32767,31840,2298,-111,-37,68,23126,23084,-1284,-107,-48,86,8606,4668,-9104,3,52,22
32767,31742,2334,-117,-52,62,23066,22912,-908,-85,-81,91,8420,4734,-9048,-1,66,25
32767,31608,2360,-93,-55,62,23434,22980,-1250,-16,-96,80,8304,4774,-9080,-10,56,31
32767,31916,2550,-43,-62,47,23352,23066,-1284,43,-89,110,8420,4674,-9082,-12,44,45
32767,32142,2676,-31,-55,66,23228,23084,-1066,24,-98,101,8536,4652,-9084,-4,44,59
32767,32124,2726,-36,-50,55,23440,23436,-1352,39,-79,99,8420,4726,-8940,1,55,64
32767,32084,2784,-49,-42,52,23190,23546,-1232,-19,-63,121,8290,4738,-8910,-9,47,63
32767,31950,2734,-43,-44,39,23206,23428,-1244,-58,-58,119,8208,4834,-8726,-44,28,41
32767,32506,2538,-33,-42,101,23346,23294,-1032,-101,-55,104,8302,4846,-8876,-70,7,36
32767,32767,2468,-78,-42,83,23600,23230,-1106,-157,-11,88,8464,4868,-9022,-76,0,48
32767,32114,2618,-138,-40,157,23284,23062,-1240,-138,9,129,8600,4822,-9154,-77,28,62
32767,32032,2718,-167,-50,136,23082,22988,-836,-130,0,106,8386,4972,-9162,-110,56,58
32767,31954,2538,-120,-14,117,23242,23110,-1228,-99,-19,62,8240,4942,-9032,-143,51,55
32767,32248,2606,-82,-27,145,23280,23076,-986,-95,-25,61,8458,4744,-9140,-138,17,47
32767,32312,2586,-124,-20,113,23392,22848,-970,-118,-27,36,8666,4750,-9310,-114,29,39
32767,31624,2672,-134,-12,106,23416,22926,-958,-90,-23,13,8612,4626,-9246,-110,67,34
32767,31642,2416,-66,-36,192,23164,22908,-954,-91,-21,7,8312,4544,-9384,-92,96,47
32767,31774,2380,-26,8,115,23230,23020,-960,-51,-25,11,8160,4466,-9172,-63,75,58
32767,31888,2446,-10,9,79,23242,23178,-854,-49,-27,9,8286,4438,-9146,-34,45,52
32767,32736,2260,6,4,94,23322,23296,-992,-53,-12,18,8400,4460,-9030,2,42,45
32767,32350,2348,-9,3,80,23088,23270,-1088,-65,-10,32,8392,4556,-9112,22,52,30
32767,32492,2234,-41,-24,153,23076,23352,-1118,-83,-18,22,8346,4750,-9180,34,60,23
32767,31942,2176,-115,-17,125,23310,23284,-1174,-99,-18,19,8246,4976,-9116,3,68,15
32767,32066,2120,-112,-36,163,23368,23188,-1168,-125,-18,12,8206,5030,-9036,-62,67,6
32767,32150,2056,-92,-24,171,23628,23206,-1110,-124,-15,5,8230,4910,-9146,-102,49,5
32767,32292,2342,-119,-41,175,23482,23108,-1092,-153,26,11,8394,4832,-9324,-100,49,3
32767,32160,2450,-215,-61,152,22942,23070,-1156,-132,13,-1,8500,4842,-9390,-112,70,-5
32767,31502,2616,-228,-41,109,23050,23026,-1110,-122,-18,-20,8374,4788,-9330,-141,92,-16
32767,31052,2390,-172,-49,90,23518,23034,-978,-106,-19,-12,8250,4592,-9162,-151,81,-12
32767,31324,2462,-101,-46,79,23450,23018,-1012,-88,-7,-4,8168,4340,-9134,-119,52,-6
32767,31840,2482,-101,-60,74,23372,23110,-1002,-80,-10,-7,8214,4262,-9192,-77,32,-6
32767,31712,2484,-175,-56,69,23392,23164,-1022,-89,0,-16,8218,4292,-9194,-22,25,-10
32767,31704,2526,-164,-58,48,23088,23170,-1046,-79,-8,-25,8190,4514,-9206,31,14,-19
32767,32042,2476,-133,-49,55,23156,23090,-1016,-59,-33,-38,8228,4688,-9254,34,10,-24
32767,32364,2424,-139,-45,58,23666,23118,-888,-43,-49,-37,8400,4718,-9204,16,5,-36
32767,32300,2458,-163,-31,76,23758,23164,-980,-55,-22,-21,8426,4826,-9292,-8,11,-54
32767,31950,2414,-170,-17,96,23336,23214,-958,-61,0,-12,8526,4876,-9382,-40,23,-65
32767,31910,2388,-151,-21,98,23112,23242,-894,-61,-24,-26,8440,4872,-9270,-82,42,-67
32767,31942,2324,-147,-15,98,23292,23242,-880,-52,-46,-41,8316,4844,-9186,-134,52,-58
32767,32286,2202,-173,-45,78,23378,23106,-950,-33,-59,-42,8280,4612,-9228,-156,37,-51
32767,31984,2336,-208,-55,83,23290,23140,-980,-35,-60,-39,8476,4304,-9332,-112,17,-60
32767,31870,2436,-217,-64,84,23398,23278,-1048,-63,-38,-13,8512,4264,-9370,-80,36,-76
32767,31728,2496,-205,-57,88,23178,23114,-1068,-71,-37,-24,8448,4332,-9238,-70,56,-82
32767,31822,2424,-195,-56,83,23018,23016,-1078,-72,-46,-50,8212,4360,-9086,-54,51,-71
32767,31752,2402,-158,-50,72,23176,22822,-1070,-56,-63,-46,8142,4436,-9126,-19,22,-57
32767,32026,2392,-138,-56,66,23348,22860,-1028,-16,-63,-41,8272,4494,-9358,26,0,-47
32767,32172,2486,-159,-61,68,23216,22944,-1080,6,-58,-43,8498,4544,-9458,55,0,-52
32767,31848,2658,-190,-66,66,23206,22952,-1170,18,-62,-54,8580,4674,-9406,47,22,-58
32767,31592,2674,-181,-47,48,23156,23108,-1110,37,-74,-56,8404,4738,-9204,-14,59,-59
32767,31790,2494,-102,-44,30,23316,23054,-1124,37,-63,-38,8164,4670,-9060,-43,43,-46
32767,32396,2430,-70,-49,33,23292,22872,-1050,13,-64,-42,8240,4630,-9240,-39,0,-26
32767,32390,2632,-126,-59,41,23258,22998,-1136,8,-62,-70,8494,4568,-9408,-23,-8,-14
32767,31942,2684,-171,-60,36,23112,22808,-968,-20,-57,-69,8554,4538,-9500,-30,25,-9
32767,31544,2760,-148,-50,25,23414,22786,-1032,-1,-66,-70,8320,4562,-9360,-51,53,-13
32767,31638,2752,-88,-37,16,23386,22808,-902,-7,-48,-78,8136,4422,-9202,-86,45,-23
32767,32230,2648,-46,-30,4,23146,22846,-842,-15,-36,-83,8168,4332,-9008,-101,7,-30
32767,32542,2424,-123,-34,17,23092,23004,-984,17,-42,-71,8374,4244,-9210,-68,-16,-15
32767,31758,2504,-165,-37,21,22946,22722,-970,8,-64,-77,8544,4266,-9462,-8,2,7
32767,31366,2454,-127,-35,11,23454,22830,-840,-1,-85,-111,8556,4364,-9464,-4,30,0
32767,31404,2494,-70,-27,2,23584,22978,-1098,14,-56,-90,8310,4408,-9296,-25,43,-12
32767,31976,2654,-54,-24,-6,23256,22922,-890,-6,-49,-89,8240,4340,-9246,-35,27,-13
32767,32024,2430,-94,-23,-24,23282,23070,-1122,8,-49,-90,8356,4302,-9328,-8,9,-1
32767,31602,2402,-122,-28,-28,23090,22674,-922,-28,-56,-108,8524,4296,-9316,34,5,8
32767,31350,2436,-64,-26,-15,23286,22738,-1028,-5,-78,-132,8502,4282,-9380,43,22,6
32767,31934,2542,23,-21,-18,23234,22674,-1172,11,-67,-106,8350,4284,-9270,32,33,2
32767,32124,2338,-16,-21,-74,23088,22558,-918,39,-79,-102,8294,4294,-9262,32,16,1
32767,31898,2448,-57,-31,-24,23352,23008,-1098,74,-71,-107,8434,4408,-9226,34,10,-4
32767,31494,2336,-67,-31,-85,23326,22882,-1082,45,-55,-95,8406,4396,-9132,24,17,-8
32767,31382,2308,-50,-43,-24,23188,22832,-1146,40,-59,-142,8248,4376,-9186,8,23,-10
32767,31474,2514,-30,-26,-96,22844,22594,-958,21,-62,-159,8152,4326,-9128,-7,8,-5
32767,31856,2346,-20,-49,-64,23092,22656,-912,34,-87,-125,8192,4244,-9178,-5,-11,-6
32767,31936,2500,-71,-53,-1,23338,22638,-1128,66,-67,-84,8428,4314,-9224,31,-24,-11
32767,31150,2412,-93,-37,-58,23326,22782,-918,62,-58,-105,8510,4334,-9176,37,-9,-14
32767,31286,2740,-83,-17,-41,23090,23208,-1440,82,-44,-91,8274,4438,-9136,8,13,-16
32767,31712,2540,-10,-18,-134,22900,22878,-1088,20,-48,-93,8134,4346,-9084,-4,-6,-11
32767,31902,2476,-18,-35,-57,23240,22806,-1054,5,-73,-133,8318,4322,-9134,17,-39,-4
32767,31812,2580,-70,-48,-17,23266,22754,-1270,-1,-50,-69,8616,4444,-9276,49,-51,3
32767,31640,2400,-133,-29,-162,23184,22524,-974,6,-48,-66,8692,4424,-9110,40,-19,9
32767,31316,2680,-100,-25,-69,23062,22810,-1230,63,-49,-86,8458,4386,-9206,13,12,-1
32767,31230,2588,9,-27,-146,22978,22992,-1288,86,-56,-73,8204,4320,-9102,-4,1,-7
32767,31736,2502,20,-8,-124,23162,23068,-1394,113,-65,-58,8238,4256,-9106,-1,-22,-8
32767,32472,2464,-33,-30,-131,23192,22938,-1340,87,-68,-63,8426,4288,-9134,36,-33,2
32767,31928,2202,-66,-26,-180,23216,23004,-1244,73,-72,-69,8418,4324,-9180,54,-30,12
32767,31212,2466,-83,-29,-118,23264,22806,-1446,77,-52,-19,8568,4302,-9242,76,-25,17
32767,30960,2398,-42,-29,-173,23160,22652,-1194,60,-58,-26,8500,4186,-9044,48,0,-1
32767,31504,2756,39,-20,-128,23140,22834,-1254,82,-55,-41,8308,4178,-8910,13,10,-29
32767,32012,2460,88,-29,-148,22952,22962,-1092,87,-62,-30,8124,4246,-8910,16,-14,-24
32767,32428,2080,1,-16,-132,23258,22886,-1104,66,-80,-34,8316,4302,-9034,49,-41,-4
32767,32178,2540,-48,-34,-62,23444,22886,-1168,42,-54,-25,8616,4426,-9246,96,-42,12
32767,31728,2388,-133,-28,-116,23312,22630,-992,8,-27,-9,8722,4436,-9168,58,-1,-6
32767,31050,2492,-84,-13,-144,23098,22600,-974,22,-33,-24,8494,4422,-9152,0,24,-30
32767,31362,2378,95,-41,-73,22980,22706,-862,12,-31,-20,8230,4438,-9046,-34,23,-33
32767,32122,2424,51,-8,-102,23068,22692,-920,47,-48,-4,8216,4380,-9104,-20,7,-13
32767,32180,2348,18,-23,-112,23004,22746,-946,79,-56,-12,8378,4276,-9178,23,3,0
32767,31550,2220,-16,-33,-50,23088,22882,-1052,75,-64,-2,8658,4216,-9180,42,16,-5
32767,31504,2140,-40,-30,-25,23344,22986,-1110,54,-52,18,8732,4156,-9224,49,40,-9
32767,31510,2202,-43,-20,-118,23314,23034,-1098,20,-40,12,8684,4170,-9190,43,71,-11
32767,31542,2190,71,-15,-84,23216,22932,-1080,-19,-33,-4,8420,4278,-9054,40,80,-8
32767,31662,2160,163,-20,-61,23212,22846,-1018,-16,-33,-1,8344,4314,-9012,54,56,-3
32767,31748,2290,171,-10,-90,23108,22894,-1178,17,-26,21,8378,4306,-9166,71,38,7
32767,32742,2396,181,-41,-60,22908,22960,-1122,42,-34,36,8578,4286,-9236,80,52,7
32767,32724,2492,8,-52,-62,23110,23130,-1174,35,-49,47,8592,4332,-9106,67,79,-3
32767,31694,2530,-116,-62,-49,23406,23100,-1134,-14,-44,44,8368,4368,-8908,43,99,-15
32767,30984,2252,-38,-52,-51,23354,23004,-1182,-36,-28,29,8168,4456,-8892,14,84,-21
32767,31636,2256,95,-47,-60,23170,22690,-1082,-3,-47,6,8246,4468,-8878,11,48,-4
32767,32166,2460,65,-68,-45,23102,22826,-978,59,-57,21,8436,4300,-9012,16,40,14
32767,32202,2648,-26,-71,-32,23274,22968,-1166,94,-61,46,8374,4218,-9122,5,70,-4
32767,31668,2784,-67,-75,-19,23290,23308,-1154,93,-57,58,8294,4252,-9108,9,71,-16
32767,31278,2728,-31,-55,-21,23078,23464,-1304,46,-47,53,8314,4312,-9044,20,60,-15
32767,31544,2728,55,-35,-29,23194,23398,-1248,-16,-49,53,8296,4420,-9034,10,56,-19
32767,32176,2558,73,-18,-29,23306,23210,-1388,-75,-40,48,8366,4326,-9054,-15,44,-17
32767,32398,2508,6,-20,-15,23152,22926,-1260,-106,-28,42,8394,4232,-9098,-20,37,-1
32767,31910,2412,-68,-31,-4,23208,22924,-1250,-80,-29,51,8438,4240,-9170,-9,44,17
32767,31394,2438,-43,-39,3,23230,22980,-1214,-31,-28,76,8328,4284,-9150,7,54,18
32767,31876,2462,26,-38,-5,23074,23106,-1138,-17,-31,73,8236,4322,-9206,5,39,6
32767,32438,2570,18,-31,-8,23394,23250,-1220,-9,-44,75,8510,4282,-9206,-12,22,2
32767,32364,2534,-34,-25,-7,23580,23170,-1318,-16,-42,79,8624,4262,-9180,-30,35,12
32767,32020,2582,-62,-24,-2,23458,23136,-1124,-48,-24,47,8428,4212,-9336,-25,57,29
32767,31708,2488,-61,-22,5,23306,23102,-1110,-55,-25,34,8316,4334,-9264,9,44,51
32767,31562,2436,-60,-35,3,23204,23048,-984,-37,-21,55,8382,4408,-9330,46,27,72
32767,31370,2466,-40,-43,0,22900,22966,-878,-18,-39,56,8440,4384,-9204,63,32,72
32767,31682,2672,16,-42,-7,23234,23218,-926,-5,-57,54,8422,4420,-9146,51,51,50
32767,32440,2580,45,-34,-12,23314,23326,-1018,1,-49,85,8206,4418,-9086,24,51,36
32767,32446,2604,7,-26,-6,23244,23322,-1076,-32,-43,83,8334,4472,-9134,14,31,42
32767,32342,2576,-32,-24,5,23250,23358,-996,-65,-42,53,8520,4506,-9164,-3,28,44
32767,32108,2490,-66,-25,22,23460,23450,-1140,-74,-41,70,8548,4522,-9250,-24,50,31
32767,31820,2420,-65,-26,18,23252,23372,-1240,-96,-24,96,8402,4506,-9244,-58,70,19
32767,31812,2326,-55,-30,27,23202,23346,-1230,-91,-38,87,8344,4416,-9258,-90,71,10
32767,32218,2304,-42,-32,53,23384,23374,-1240,-83,-42,95,8362,4456,-9348,-102,60,13
32767,32394,2372,-70,-35,69,23506,23394,-1276,-107,-34,100,8512,4336,-9392,-87,60,28
32767,32136,2538,-117,-38,83,23448,23454,-1294,-99,-25,112,8532,4336,-9378,-53,74,24
32767,31740,2548,-88,-29,84,23290,23494,-1194,-110,-26,110,8428,4452,-9254,-41,79,23
32767,31690,2462,-42,-41,69,23526,23576,-1464,-83,-12,111,8358,4508,-9256,-31,65,40
32767,31938,2378,-45,-49,68,23360,23584,-1328,-95,5,114,8376,4458,-9154,-19,52,63
32767,32070,2430,-59,-64,47,23258,23532,-1302,-99,-2,88,8304,4448,-9272,-9,50,64
32767,32018,2606,-45,-70,72,23054,23334,-1298,-106,-5,84,8248,4448,-9258,3,43,51
32767,31818,2810,-55,-63,76,23110,23124,-1176,-123,-29,79,8188,4498,-9200,-8,40,38
32767,32204,2752,-43,-48,85,23462,23144,-1346,-62,-34,78,8278,4610,-9216,-31,36,37
32767,32592,2718,-20,-30,56,23330,23064,-1264,-52,-17,96,8252,4658,-9200,-51,29,50
32767,32240,2740,-85,-19,70,23026,22980,-1122,-69,-25,69,8280,4636,-9248,-55,23,57
32767,32262,2710,-108,-25,118,23336,23190,-1286,-47,-21,52,8324,4638,-9294,-79,15,44
32767,32190,2680,-85,-17,92,23104,23058,-1098,-50,-13,70,8460,4726,-9320,-90,18,33
32767,32434,2514,-74,-18,131,22806,22862,-776,-94,-30,22,8442,4664,-9354,-102,34,27
32767,32402,2568,-114,-21,129,23318,23206,-1110,-58,-35,29,8434,4634,-9412,-128,44,25
32767,31944,2442,-131,-12,132,23064,22980,-1028,-66,-14,67,8478,4554,-9422,-153,47,27
32767,32350,2358,-129,-15,188,22854,22928,-1024,-80,-28,17,8446,4470,-9354,-141,45,32
32767,32382,2534,-104,-18,170,23212,23314,-1116,-63,-39,-5,8312,4494,-9456,-112,47,38
32767,32554,2242,-133,-30,135,23314,23374,-1164,-65,-26,24,8088,4674,-9574,-94,50,43
32767,32248,2104,-131,-32,178,23266,23298,-1252,-61,-20,24,8190,4748,-9582,-92,46,54
32767,32178,2288,-146,-49,146,23200,23428,-1330,-54,-26,17,8446,4726,-9578,-90,39,57
32767,31980,2258,-145,-55,118,23308,23516,-1276,-61,-27,18,8666,4602,-9548,-88,63,61
32767,31676,2504,-96,-58,143,23458,23568,-1408,-60,-30,15,8502,4462,-9542,-100,96,57
32767,32102,2646,-82,-59,139,23396,23692,-1414,-72,-21,15,8342,4386,-9406,-104,99,46
32767,32398,2534,-108,-43,101,23174,23712,-1332,-105,-19,18,8140,4468,-9426,-92,81,43
32767,31866,2530,-129,-46,76,23242,23564,-1426,-112,-32,14,8216,4498,-9398,-77,54,42
32767,31696,2310,-96,-66,106,23560,23394,-1232,-121,-42,-12,8404,4520,-9280,-70,50,35
32767,32070,2354,-63,-52,124,23444,23262,-1206,-138,-12,-15,8370,4424,-9354,-69,57,38
32767,31896,2648,-124,-67,35,23114,23048,-1264,-145,6,6,8166,4250,-9312,-58,59,32
32767,31780,2744,-167,-81,45,22924,22912,-1190,-94,-28,4,8004,4326,-9252,-67,47,5
32767,31328,2594,-121,-52,107,23378,23152,-1154,-33,-47,-2,8022,4406,-9202,-61,11,-10
32767,31748,2660,-64,-45,91,23518,23272,-1106,-14,-39,3,8202,4472,-9364,-20,-13,2
32767,32028,2668,-141,-43,56,23390,23410,-1032,-15,-33,-7,8278,4520,-9456,-3,-7,1
32767,31806,2632,-153,-36,67,23392,23428,-1090,-49,-26,-16,8274,4592,-9400,-26,14,-15
32767,32042,2596,-143,-19,81,23348,23382,-1118,-105,-14,-11,8278,4652,-9504,-41,-1,-19
32767,32076,2652,-139,-13,78,23080,23176,-988,-138,-17,-12,8414,4638,-9578,-38,-5,-16
32767,31990,2486,-121,-8,80,22950,23002,-914,-136,-46,-31,8456,4646,-9582,-57,17,-15
32767,32182,2382,-87,-2,83,23594,22910,-976,-44,-83,-31,8416,4560,-9468,-73,24,-19
32767,32308,2420,-78,-1,85,23632,23168,-1002,-11,-72,-30,8326,4534,-9492,-70,21,-23
32767,32734,2366,-102,-12,75,23298,23374,-1178,4,-52,-15,8338,4528,-9588,-60,14,-26
32767,32674,2432,-170,-22,68,22992,23462,-1140,-6,-53,-4,8458,4474,-9596,-41,18,-30
32767,32168,2438,-197,-29,65,23274,23416,-1294,-3,-93,-11,8448,4594,-9572,-30,33,-32
32767,31880,2402,-184,-37,51,23484,23396,-1304,4,-97,-30,8370,4620,-9284,-49,40,-26
32767,31978,2346,-151,-46,36,23350,23312,-1382,-10,-92,-45,8332,4424,-9378,-63,28,-26
32767,32212,2448,-133,-54,46,23360,23368,-1416,-21,-75,-34,8374,4198,-9476,-48,25,-30
32767,32278,2460,-152,-57,65,23562,23470,-1458,-24,-48,-2,8428,4308,-9562,-18,34,-44
32767,31788,2518,-162,-44,73,23246,23374,-1230,-42,-33,-7,8394,4490,-9506,-10,54,-46
32767,31912,2550,-132,-44,54,23012,23304,-1162,-51,-44,-30,8288,4616,-9360,-8,55,-34
32767,31918,2524,-118,-41,42,23146,23100,-1102,-43,-62,-29,8262,4588,-9134,-11,34,-28
32767,32070,2516,-93,-52,33,23324,22932,-1098,-5,-81,-36,8336,4488,-9156,-11,12,-30
32767,32370,2608,-98,-57,37,23190,23024,-1118,23,-72,-41,8412,4338,-9464,-8,2,-44
32767,32216,2850,-158,-61,50,23202,23126,-1028,11,-70,-34,8442,4408,-9512,-14,15,-51
32767,31678,2920,-189,-47,54,23230,23250,-1098,12,-68,-28,8434,4472,-9430,-32,33,-41
32767,31650,2878,-163,-32,42,23110,23164,-1084,-5,-62,-28,8344,4490,-9378,-41,35,-22
32767,31682,2736,-136,-18,34,23270,22978,-970,-21,-80,-59,8174,4474,-9330,-32,18,-15
32767,32108,2572,-87,-21,33,23390,22970,-1076,-4,-73,-77,8240,4484,-9388,-12,-12,-15
32767,32534,2608,-89,-25,34,23142,22992,-1152,19,-60,-59,8484,4338,-9532,3,-23,-12
32767,32492,2662,-139,-28,37,23246,23210,-1022,18,-69,-61,8620,4310,-9808,3,8,-11
32767,31734,2606,-137,-12,46,23424,23314,-1162,38,-51,-48,8442,4418,-9816,-3,48,3
32767,31584,2508,-63,-4,30,23250,23012,-1052,-23,-59,-78,8240,4394,-9592,-2,52,18
32767,31860,2416,-19,-4,10,23350,23032,-936,-42,-72,-127,8134,4328,-9348,-10,30,11
32767,32616,2114,-2,-25,5,23282,23144,-1066,-8,-51,-85,8290,4332,-9370,-9,-2,2
32767,32767,2114,-60,-52,5,23232,22878,-942,24,-55,-37,8520,4314,-9574,12,-5,16
32767,32306,2276,-160,-65,22,23408,23128,-914,31,-66,-74,8606,4408,-9738,37,23,28
32767,31608,2564,-138,-72,15,23176,23436,-986,37,-50,-75,8458,4420,-9652,25,52,25
32767,31494,2634,-57,-62,4,23262,23276,-1030,1,-68,-56,8138,4466,-9536,-5,61,12
32767,31730,2566,-2,-48,-1,23356,23074,-1104,-6,-77,-96,8106,4390,-9408,-23,37,6
32767,32122,2518,-15,-44,-28,23402,22942,-1064,-4,-82,-118,8312,4254,-9282,-18,4,3
32767,32310,2478,-72,-44,-32,23352,22898,-1056,4,-64,-108,8416,4164,-9404,5,7,4
32767,31984,2652,-76,-44,-22,23252,22916,-1062,49,-64,-104,8320,4110,-9442,37,13,8
32767,31650,2598,-88,-47,-26,23112,22902,-1134,87,-80,-109,8226,4254,-9550,59,14,14
32767,31350,2664,-81,-35,-27,23166,23000,-1038,52,-101,-139,8210,4480,-9464,64,5,2
32767,31606,2578,-14,-30,-47,23324,23162,-1230,45,-83,-132,8248,4522,-9364,48,-2,-10
32767,32220,2618,32,-36,-74,23248,23000,-1214,42,-58,-83,8304,4378,-9248,25,-10,-18
32767,32684,2532,-60,-39,-49,23286,22952,-1120,43,-64,-102,8382,4266,-9380,14,-6,-16
32767,32066,2522,-142,-30,-120,23118,23146,-1090,53,-66,-150,8460,4264,-9534,33,2,6
32767,31354,2396,-130,-35,-113,22974,23120,-1314,60,-76,-138,8354,4292,-9364,45,13,7
32767,31020,2448,0,-42,-33,23032,22944,-1058,41,-85,-125,8174,4356,-9244,56,0,-8
32767,32216,2660,76,-30,-47,23496,22820,-1142,54,-79,-115,8160,4434,-9304,63,-32,-18
32767,32584,2726,-7,-30,-102,23442,22954,-1184,56,-61,-116,8290,4522,-9384,58,-48,-11
32767,31892,2550,-57,-54,11,22860,23168,-1316,78,-44,-90,8496,4512,-9480,44,-31,-2
32767,32112,2696,-117,-42,-42,23042,23284,-1126,80,-75,-86,8366,4538,-9448,29,-15,-5
32767,31752,2594,-109,-21,-82,23266,23380,-1242,65,-70,-77,8320,4544,-9466,37,-11,-2
32767,31704,2754,-57,-9,-93,23234,23184,-1150,22,-59,-73,8402,4566,-9400,11,-5,3
32767,31510,2464,11,-7,-142,23216,23132,-1352,3,-46,-55,8310,4410,-9254,-2,-12,4
32767,31742,2502,55,-12,-85,23144,23086,-1348,30,-42,-26,8326,4332,-9320,23,-21,2
32767,32402,2734,29,-32,-72,23302,22992,-1408,64,-58,-34,8438,4232,-9364,58,-22,11
32767,32572,2536,-91,-26,-213,23498,23168,-1338,73,-60,-62,8368,4182,-9254,66,-7,7
32767,31432,2386,-88,-27,-172,23510,23252,-1238,23,-32,-48,8256,4222,-9168,51,-5,-15
32767,31070,2330,26,-29,-106,23112,23114,-1326,13,-1,3,8164,4330,-9146,55,-27,-32
32767,31678,2180,75,-28,-78,23016,23080,-1122,28,-33,5,8310,4460,-9428,95,-47,-12
32767,31540,2206,-21,-33,-111,23246,23178,-1114,49,-51,2,8540,4596,-9442,110,-20,16
32767,31492,2584,-80,-37,-90,23346,23224,-1230,55,-46,12,8454,4520,-9268,69,15,4
32767,31454,2474,-64,-28,-177,23442,23226,-1260,47,-37,18,8312,4346,-9192,9,17,-28
32767,31612,2616,5,-20,-142,23488,23298,-1108,28,-24,4,8282,4246,-9088,-12,-2,-41
32767,32092,2518,27,-3,-168,23230,23198,-1044,-1,-13,3,8326,4216,-9174,15,-19,-26
32767,32474,2328,25,-6,-140,22968,23082,-902,-24,-31,10,8444,4250,-9268,67,-21,-6
32767,32622,2514,8,-18,-130,23170,22856,-938,-12,-54,11,8508,4338,-9310,97,-9,-7
32767,32198,2434,-71,-30,-81,23252,22834,-1014,29,-68,11,8488,4470,-9350,81,11,-22
32767,31678,2404,-26,-24,-97,23226,22898,-1106,59,-65,3,8370,4474,-9204,16,31,-44
32767,32030,2228,5,1,-98,23336,23102,-1226,63,-54,16,8330,4440,-9184,-1,22,-46
32767,32416,2404,50,0,-80,23186,23228,-1318,42,-48,10,8442,4382,-9310,20,19,-37
32767,32708,2406,46,-5,-57,23072,23230,-1302,13,-47,6,8572,4320,-9430,48,34,-27
32767,32296,2458,-29,-7,-44,23154,23282,-1360,5,-46,10,8522,4366,-9360,58,53,-24
32767,31608,2226,-59,-7,-60,23228,23240,-1292,-5,-41,14,8536,4444,-9218,25,63,-24
32767,31578,2104,9,-27,-49,23294,23178,-1280,-14,-31,11,8438,4336,-9060,-7,60,-30
32767,32622,2194,55,-48,-42,23300,23134,-1174,-17,-22,7,8410,4218,-9226,-2,49,-29
32767,32767,2410,-7,-60,-22,23204,23106,-1190,-16,-25,11,8456,4218,-9334,21,52,-19
32767,31880,2620,-40,-57,-3,23230,23110,-1108,40,-51,27,8374,4330,-9344,33,82,-3
32767,31852,2606,28,-42,-16,23404,23294,-1068,56,-55,29,8176,4436,-9220,23,82,-3
32767,32400,2428,43,-39,-26,23426,23442,-1108,47,-45,39,8286,4576,-9094,19,56,8
32767,32520,2326,-18,-47,-25,23300,23472,-1062,35,-42,39,8518,4538,-9236,17,46,25
32767,32098,2414,-61,-60,-19,23052,23320,-1074,-13,-44,28,8572,4436,-9260,2,63,25
32767,31710,2680,-30,-63,-12,23024,23174,-1044,-56,-51,29,8368,4334,-9322,-12,78,10
32767,31834,2862,28,-54,-8,23274,23244,-1076,-61,-50,48,8180,4334,-9268,-24,76,1
32767,32120,2954,27,-41,-8,23510,23348,-1166,-57,-28,82,8176,4342,-9268,-18,58,13
32767,31964,2652,-31,-29,-12,23428,23496,-1168,-63,-7,92,8428,4352,-9170,-4,47,27
32767,31772,2570,-26,-21,-11,23266,23586,-1200,-115,-3,67,8516,4292,-9184,-6,43,15
32767,31858,2448,-5,-26,-10,23236,23424,-1280,-148,-7,72,8424,4232,-9362,-14,48,4
32767,31910,2372,7,-29,-6,23314,23248,-1160,-165,-18,69,8352,4218,-9362,-6,57,-2
32767,32080,2460,1,-35,-5,23358,23114,-1074,-143,-22,78,8300,4272,-9310,0,64,-11
32767,32100,2452,-18,-32,3,23602,23312,-1164,-121,-16,83,8238,4342,-9374,-9,65,-13
32767,32178,2400,-32,-35,10,23276,23336,-1204,-84,1,94,8306,4254,-9374,-22,57,-4
32767,32086,2386,-57,-39,11,23198,23420,-1028,-98,-18,67,8438,4220,-9296,-21,54,10
32767,31934,2370,-57,-53,12,23350,23548,-1262,-58,-23,75,8520,4300,-9388,3,60,19
32767,31956,2488,-34,-59,14,23294,23330,-950,-117,-37,82,8462,4346,-9462,18,68,21
32767,32054,2580,-18,-51,8,23574,23452,-1274,-84,-28,91,8422,4442,-9368,11,76,21
32767,32146,2664,-2,-47,3,23488,23612,-1166,-114,-14,116,8328,4448,-9376,-12,76,28
32767,32266,2712,5,-39,4,23224,23636,-1236,-109,5,130,8212,4420,-9310,-12,69,45
32767,32322,2650,4,-38,13,23280,23708,-1404,-122,-8,123,8240,4430,-9264,-3,58,58
32767,32256,2684,-21,-45,14,23392,23722,-1328,-142,-5,130,8300,4338,-9268,4,34,52
32767,31982,2772,-24,-41,12,23344,23612,-1248,-172,2,133,8346,4334,-9172,-12,41,21
32767,32330,2662,10,-31,41,23354,23500,-1276,-201,3,118,8188,4380,-9138,-75,43,-4
32767,32767,2624,-17,-21,72,23090,23284,-1358,-171,11,134,8162,4448,-9242,-93,36,4
32767,32767,2546,-99,-17,101,23066,23080,-1272,-147,-25,106,8362,4556,-9348,-84,23,25
32767,32660,2490,-191,-25,109,23530,23162,-1422,-87,-36,88,8434,4632,-9456,-92,19,27
32767,32390,2514,-221,-26,102,23328,23034,-1354,-81,-11,100,8580,4548,-9552,-125,31,12
32767,31882,2548,-183,-35,103,23078,23098,-1404,-69,-14,76,8538,4538,-9504,-157,45,-4
32767,31936,2496,-130,-28,175,23014,23162,-1258,-53,-32,50,8392,4428,-9430,-172,57,-3
32767,32220,2594,-128,-27,108,23170,23144,-1266,-76,-32,35,8244,4378,-9392,-168,54,12
32767,32206,2440,-159,-14,141,23050,23040,-1342,-57,-18,47,8222,4206,-9470,-114,28,47
32767,32398,2592,-183,-51,118,23070,23034,-1078,-61,-35,8,8368,4222,-9604,-77,14,50
32767,32336,2530,-195,-37,94,23290,23268,-1232,-20,-30,19,8498,4320,-9572,-62,28,50
32767,31932,2752,-131,-43,84,23224,23370,-1156,-23,-19,38,8424,4340,-9418,-83,44,42
32767,32224,2716,-90,-38,118,23166,23506,-1206,-37,-18,27,8142,4480,-9294,-89,39,42
32767,32380,2522,-76,-24,123,23182,23596,-1098,-59,-29,14,8170,4524,-9286,-88,14,43
32767,32594,2356,-102,-33,209,23486,23612,-1236,-81,-24,20,8270,4576,-9384,-82,-6,46
32767,32712,2522,-161,-24,152,23438,23452,-1226,-88,-18,20,8570,4636,-9546,-90,0,44
32767,32616,2426,-173,-27,196,23420,23448,-1218,-155,3,-20,8548,4702,-9572,-143,51,33
32767,32314,2410,-157,-27,204,23222,23226,-1356,-182,34,3,8376,4674,-9556,-194,65,29
32767,32484,2420,-178,-33,169,22854,23042,-1252,-156,23,11,8168,4542,-9516,-228,61,27
32767,32398,2432,-190,-26,194,23068,23132,-1156,-91,-10,-12,8302,4318,-9646,-221,48,26
32767,31822,2618,-187,-36,182,23270,23416,-1294,-26,-27,-5,8466,4168,-9778,-174,47,28
32767,31598,2380,-182,-39,208,23148,23658,-1336,3,-41,6,8492,4186,-9646,-136,71,29
32767,31284,2512,-142,-12,141,23268,23886,-1376,-26,-45,2,8234,4130,-9616,-119,82,30
32767,31500,2228,-73,-34,128,23412,23732,-1520,-69,-36,8,8156,4022,-9578,-90,51,31
32767,31880,2360,-98,-34,154,23566,23442,-1530,-127,-22,-14,8380,3980,-9588,-24,22,31
32767,31538,2458,-153,-61,103,23492,23226,-1454,-149,-6,-34,8384,4176,-9516,10,46,13
32767,31526,2480,-135,-46,65,23110,22996,-1248,-136,3,-32,8114,4280,-9600,1,51,7
32767,31380,2566,-111,-54,34,22800,23010,-1266,-91,-12,-22,8092,4336,-9412,-13,31,4
32767,31596,2440,-77,-50,88,22902,23076,-1198,-48,-37,-10,8222,4370,-9444,-7,13,3
32767,31982,2408,-80,-43,60,23220,23224,-1254,-47,-32,-3,8386,4428,-9480,-5,13,-3
32767,32328,2502,-113,-37,53,23272,23298,-1294,-76,-30,-41,8376,4488,-9522,-21,23,-8
32767,32166,2568,-144,-36,62,23252,23230,-1186,-75,-32,-56,8276,4510,-9522,-51,31,-16
32767,32030,2618,-132,-26,63,23292,23238,-1160,-53,-43,-45,8162,4560,-9580,-79,24,-30
32767,32120,2598,-101,-17,64,23348,23292,-1042,-38,-44,-31,8350,4628,-9454,-90,11,-32
32767,32324,2524,-155,-27,47,23382,23350,-1102,-15,-48,-20,8448,4594,-9302,-124,5,-37
32767,32114,2430,-190,-41,41,23288,23328,-1228,-10,-55,-30,8322,4360,-9460,-158,5,-38
32767,32072,2314,-193,-54,56,23282,23352,-1232,2,-68,-46,8256,4012,-9554,-155,8,-39
32767,31888,2540,-181,-55,73,23302,23432,-1232,6,-81,-49,8298,3988,-9862,-108,7,-38
32767,31862,2528,-153,-45,87,23370,23460,-1238,-8,-66,-39,8328,4236,-9932,-67,18,-28
32767,32046,2726,-126,-30,72,23254,23446,-1304,-25,-54,-26,8348,4250,-9684,-55,26,-25
32767,32344,2756,-128,-17,47,23024,23334,-1392,-32,-60,-29,8408,4222,-9566,-49,21,-40
32767,32432,2424,-131,-6,37,22964,23152,-1338,-22,-83,-46,8494,4258,-9552,-26,9,-50
32767,32310,2306,-132,-1,37,23248,23002,-1340,-10,-93,-55,8588,4306,-9582,-12,14,-32
32767,32044,2134,-150,-17,34,23516,22998,-1150,-16,-81,-52,8504,4310,-9644,-18,31,-14
32767,31876,2136,-137,-40,33,23262,23096,-1084,-84,-21,-24,8270,4232,-9652,-23,43,-20
32767,31962,2404,-118,-60,36,22982,23040,-1126,-149,3,-10,8228,4128,-9520,-31,30,-46
32767,32154,2528,-126,-60,37,22800,22892,-1048,-190,-6,-32,8324,4106,-9492,-59,25,-75
32767,32116,2698,-155,-50,33,22830,22688,-1022,-181,-24,-66,8382,4068,-9526,-90,32,-82
32767,31932,2556,-153,-39,38,22936,22612,-980,-134,-38,-73,8364,4092,-9548,-92,39,-60
32767,31674,2428,-147,-33,39,23092,22624,-1064,-65,-46,-59,8332,3994,-9566,-25,32,-28
32767,31682,2428,-135,-33,39,23192,22852,-1106,-20,-52,-50,8388,4078,-9566,21,20,-33
32767,31668,2606,-120,-34,35,23146,23024,-1240,-16,-42,-78,8428,4180,-9516,33,16,-46
32767,32230,2680,-95,-40,25,23176,23286,-1364,-24,-47,-103,8366,4218,-9496,22,13,-47
32767,32374,2654,-109,-35,27,23124,23138,-1316,-53,-48,-126,8452,4332,-9640,27,15,-33
32767,32172,2652,-118,-30,26,23236,22978,-1248,-65,-50,-146,8336,4414,-9722,42,18,-8
32767,31832,2654,-105,-28,23,23258,22892,-1352,-37,-38,-127,8372,4432,-9698,35,23,3
32767,31852,2630,-71,-24,15,23010,22778,-1386,20,-48,-102,8336,4324,-9554,3,27,-2
32767,32070,2594,-35,-24,9,22898,22988,-1400,82,-67,-117,8346,4216,-9528,-62,27,-12
32767,32560,2394,-39,-23,11,23108,23350,-1380,110,-88,-115,8356,4038,-9558,-68,19,-7
32767,32348,2570,-89,-28,8,23320,23376,-1402,80,-77,-104,8418,3978,-9754,-27,19,6
32767,31808,2614,-106,-28,-2,23312,23104,-1328,33,-59,-134,8412,4022,-9738,-1,38,4
32767,31350,2592,-56,-15,-21,23194,23018,-1552,43,-57,-127,8366,4062,-9452,-31,47,-2
32767,31676,2414,5,-16,-25,22904,22766,-1280,38,-71,-137,8180,3818,-9228,-84,40,-12
32767,32286,2218,33,-22,-23,23096,22936,-1202,81,-91,-144,8036,3752,-8994,-88,-1,-32
32767,32586,2276,-5,-36,0,23172,22906,-1272,102,-87,-104,8134,3744,-9214,-47,-55,-43
32767,32664,2458,-110,-60,18,23140,22788,-1020,68,-94,-103,8288,3812,-9478,-5,-72,-43
32767,31296,2624,-253,-66,33,23138,22918,-1160,99,-85,-110,8404,4048,-9604,-2,-34,-44
32767,30794,2744,-210,-49,19,23124,22864,-1278,89,-93,-97,8266,4150,-9528,-37,-7,-52
32767,31040,2652,-108,-28,3,22994,22724,-1110,102,-105,-127,8144,4158,-9486,-74,-20,-61
32767,31436,2674,-44,-13,4,23006,22802,-1344,153,-117,-123,8298,4036,-9450,-72,-47,-56
32767,32044,2592,-39,-10,-56,23026,22570,-1238,182,-147,-102,8292,3932,-9554,-44,-50,-42
32767,32024,2442,-116,-5,-66,23072,22708,-1000,164,-149,-117,8412,3828,-9602,-9,-47,-35
32767,31182,2414,-157,-27,-51,23434,23168,-1144,155,-108,-83,8506,3802,-9502,8,-37,-31
32767,31064,2402,-171,-16,-81,23198,23368,-1300,142,-62,0,8446,3772,-9502,21,-31,-37
32767,31408,2428,-31,-21,-98,22852,23286,-1232,80,-48,0,8414,3934,-9504,54,-34,-32
32767,31802,2488,12,-12,-90,23370,23466,-1294,40,-67,-40,8388,3978,-9714,87,-32,-13
32767,32578,2402,-14,-19,-119,23478,23406,-1280,-10,-51,-30,8492,4038,-9672,94,-26,-15
32767,32488,2546,-94,-12,-145,23106,23082,-1220,-28,-43,-20,8562,4084,-9560,65,-8,-27
32767,31654,2374,-91,-15,-130,23142,22876,-1330,10,-78,-37,8524,4010,-9422,35,11,-29
32767,31312,2112,-24,-12,-122,23398,22934,-1314,46,-81,-41,8470,3958,-9304,31,18,-19
32767,31918,2374,34,-3,-135,23432,23022,-1254,64,-82,-17,8504,3996,-9500,64,17,0
32767,31756,2116,67,-18,-174,23448,23106,-1092,50,-65,-6,8514,3888,-9446,93,22,7
32767,32108,2364,23,-36,-139,23366,23150,-1156,38,-39,2,8522,3890,-9348,72,25,-9
32767,31712,2496,15,-43,-138,22902,23090,-1102,6,-50,2,8460,3800,-9292,51,33,-10
32767,31858,2514,-13,-17,-175,22980,22864,-1038,9,-64,-14,8320,3824,-9272,59,33,-8
32767,31496,2316,48,-25,-128,23194,22774,-1044,28,-77,-18,8348,3922,-9342,95,16,-4
32767,31462,2456,86,-21,-91,23154,22768,-1102,43,-74,-14,8516,4062,-9402,123,1,10
32767,31578,2426,71,-12,-128,23034,22858,-1182,76,-61,-9,8646,3946,-9444,127,14,27
32767,31600,2490,18,-35,-79,23002,22988,-1270,77,-65,-2,8680,3844,-9482,117,40,26
32767,31196,2390,27,-9,-181,23176,23084,-1322,69,-63,-1,8478,3684,-9352,110,69,20
32767,30864,2256,101,9,-200,23190,23048,-1224,49,-72,-24,8070,3686,-8914,97,63,-10
32767,32402,2370,214,11,-176,23228,22982,-1242,32,-71,-21,7976,3860,-8910,98,11,-28
32767,32767,2220,194,-7,-121,23306,22886,-1218,35,-56,-9,8148,3984,-9136,130,-35,-3
32767,32767,2154,44,-1,-126,23148,23010,-1220,70,-52,-6,8614,4098,-9484,143,-29,16
32767,32558,2200,-80,-16,-77,23044,23192,-1204,77,-53,-1,8720,4360,-9600,113,14,9
32767,31930,2306,-91,-16,-51,23242,23282,-1184,68,-58,5,8564,4522,-9560,44,58,-1
32767,31832,2406,-28,-24,-31,23468,23336,-1128,18,-45,-5,8378,4444,-9518,-5,58,-9
32767,31824,2472,-7,-20,-41,23226,23156,-1176,1,-32,-11,8504,4370,-9378,-29,50,-10
32767,32120,2392,8,-26,-55,23038,23064,-1060,11,-40,-12,8606,3932,-9326,-65,71,10
32767,31886,2368,10,-20,-65,23064,23018,-1218,31,-49,-1,8412,3592,-9100,-55,86,17
32767,32194,2270,42,-32,-65,23172,23140,-1170,42,-49,12,8210,3568,-9098,-2,55,24
32767,32578,2276,32,-50,-44,23166,23228,-1324,40,-45,13,8278,3704,-9246,78,18,36
32767,32436,2442,-26,-69,-29,23108,23222,-1320,31,-45,10,8470,3986,-9392,136,11,35
32767,31684,2608,-74,-70,-29,23174,23186,-1404,10,-41,8,8508,4284,-9430,123,33,23
32767,31480,2552,-49,-60,-35,23164,23074,-1340,24,-28,8,8396,4296,-9330,61,56,17
32767,31348,2580,6,-41,-34,23146,23168,-1250,20,-33,21,8250,4180,-9270,12,64,14
32767,31744,2514,44,-38,-32,23258,23252,-1300,28,-26,36,8274,3914,-9216,-7,51,3
32767,32026,2466,7,-28,-34,23228,23362,-1308,45,-22,40,8386,3842,-9336,4,31,-4
32767,31846,2382,-10,-32,-27,23332,23444,-1170,23,-15,37,8592,3822,-9450,27,36,-5
32767,31622,2350,-16,-34,-29,23390,23456,-1190,10,-11,52,8590,3888,-9494,30,62,1
32767,31598,2366,-21,-32,-33,23428,23366,-1152,14,-15,58,8424,3984,-9408,18,83,1
32767,31516,2376,17,-32,-29,23220,23284,-1128,43,-22,48,8192,4012,-9298,14,72,-6
32767,31920,2272,78,-33,-28,23248,23408,-1050,53,-36,58,8238,3980,-9262,26,47,-6
32767,32116,2368,81,-32,-26,23146,23528,-1160,41,-39,68,8388,3914,-9410,44,40,1
32767,32302,2334,51,-40,-24,23094,23664,-1180,18,-37,77,8432,3968,-9420,48,55,4
32767,32264,2496,-15,-43,-18,23236,23832,-1272,-46,-40,90,8386,4042,-9374,41,61,2
32767,32008,2396,-28,-47,-16,23524,23926,-1252,-102,-13,106,8304,4182,-9328,42,54,8
32767,31820,2390,-12,-50,-15,23596,23866,-1412,-126,17,130,8266,4210,-9466,43,52,12
32767,31944,2512,16,-51,-17,23292,23612,-1292,-169,21,121,8304,4188,-9418,29,51,-1
32767,32174,2634,27,-43,-18,23320,23492,-1360,-152,3,88,8346,4102,-9438,-12,59,-16
32767,32386,2526,9,-43,-20,23250,23296,-1304,-161,-4,99,8374,3944,-9458,-45,58,-24
32767,32338,2538,-35,-40,-17,23268,23148,-1156,-160,-3,93,8458,3898,-9506,-44,61,-17
32767,31940,2510,-61,-35,-16,23244,23222,-1284,-107,-10,109,8418,3900,-9482,-35,71,-8
32767,31754,2308,-12,-29,-11,23240,23266,-1174,-115,-20,99,8348,3872,-9446,-16,78,-7
32767,31948,2282,37,-29,-8,23314,23352,-1268,-68,-18,95,8352,3822,-9468,-13,71,-9
32767,32268,2286,47,-29,-2,23230,23438,-1248,-88,-16,92,8340,3732,-9478,-5,70,-10
32767,32338,2394,32,-31,10,23066,23412,-1374,-86,-8,96,8342,3788,-9524,22,73,-10
32767,32492,2398,2,-35,4,23164,23484,-1286,-125,-27,74,8434,3896,-9512,42,71,0
32767,32420,2424,-39,-40,5,23230,23486,-1506,-95,8,110,8436,4038,-9466,57,66,20
32767,32242,2476,-37,-39,15,23068,23280,-1216,-158,-2,99,8414,4144,-9516,60,67,43
32767,32198,2608,-3,-41,28,23624,23530,-1424,-115,0,78,8380,4156,-9658,58,71,64
32767,32402,2694,10,-38,32,23580,23670,-1638,-100,27,117,8214,4192,-9640,44,65,61
32767,32386,2640,-7,-36,33,22848,23350,-1390,-137,34,97,8208,4254,-9502,2,57,42
32767,32388,2738,15,-27,51,22858,23532,-1372,-153,-9,18,8366,4186,-9372,-33,36,21
32767,32656,2690,27,-18,66,23124,23406,-1468,-145,-28,18,8388,4156,-9308,-61,42,7
32767,32767,2600,-19,-16,83,23072,22842,-1206,-133,-40,8,8384,4132,-9292,-86,53,8
32767,32767,2452,-103,-12,116,23128,22922,-1338,-68,-50,-13,8166,4220,-9432,-103,53,11
32767,32767,2144,-158,-2,199,23200,23072,-1402,-14,-45,10,8256,4288,-9588,-107,32,24
32767,32700,2402,-168,-23,164,23154,23280,-1198,27,-44,25,8572,4326,-9710,-103,27,34
32767,32588,2284,-191,-29,163,23334,23742,-1302,31,-37,19,8742,4292,-9754,-134,72,20
32767,32210,2512,-171,-36,165,23080,23988,-1390,-28,-18,18,8458,4184,-9554,-173,92,0
32767,32304,2468,-166,-40,144,22886,23920,-1424,-90,-14,26,8250,3954,-9510,-190,83,-4
32767,31958,2532,-148,-23,198,23054,23732,-1394,-156,-25,25,8218,3784,-9632,-171,57,12
32767,32554,2674,-138,-41,129,23338,23496,-1468,-181,-9,26,8316,3718,-9690,-125,44,30
32767,32244,2510,-165,-30,129,23308,23334,-1454,-167,0,43,8326,3728,-9610,-79,42,36
32767,32144,2450,-149,-48,170,23268,23386,-1500,-124,6,45,8226,3886,-9668,-58,35,24
32767,32156,2468,-146,-28,128,23262,23592,-1472,-94,-10,34,8192,3896,-9594,-52,26,9
32767,32254,2468,-146,-33,109,23288,23596,-1444,-112,-15,16,8270,4048,-9610,-64,18,-9
32767,32238,2422,-134,-8,164,23338,23500,-1308,-125,-17,10,8380,3976,-9618,-76,17,-2
32767,32356,2310,-148,-36,174,23270,23238,-1454,-113,-20,15,8438,3988,-9662,-86,16,0
32767,32280,2230,-166,-19,195,23006,23038,-1314,-80,-26,2,8392,4118,-9752,-91,29,-4
32767,32274,2126,-126,-19,216,23258,23258,-1420,-45,-35,10,8360,4278,-9906,-89,30,-3
32767,32268,2306,-177,-40,145,23406,23454,-1344,-42,-25,32,8450,4214,-9944,-97,27,-5
32767,31812,2444,-257,-58,125,23284,23598,-1184,-76,-15,26,8506,4042,-10024,-144,42,-20
32767,31224,2548,-220,-58,117,23096,23600,-1210,-114,-16,-1,8444,3764,-9878,-188,70,-24
32767,31182,2680,-207,-52,99,23320,23264,-1094,-137,-22,-13,8194,3436,-9740,-163,75,-11
32767,31264,2474,-134,-38,71,23390,23208,-1160,-135,-5,-15,8162,3376,-9630,-64,27,0
32767,31896,2368,-32,-30,38,23098,23162,-1262,-108,1,-2,8212,3436,-9572,10,-4,6
32767,32624,2350,-39,-32,43,22968,23306,-1194,-81,-17,4,8248,3678,-9678,59,-17,5
32767,32426,2382,-92,-37,52,23052,23412,-1200,-59,-38,3,8296,3966,-9670,77,-12,-4
32767,32694,2396,-121,-45,43,23106,23478,-1230,-45,-42,6,8262,4262,-9720,52,-4,-17
32767,32767,2538,-164,-42,55,23228,23398,-1324,-45,-49,17,8316,4306,-9722,-8,5,-35
32767,32642,2578,-202,-36,75,23360,23376,-1482,-56,-49,-9,8398,4214,-9722,-84,16,-51
32767,32382,2334,-192,-22,96,23120,23462,-1482,-73,-37,-30,8388,4052,-9714,-146,33,-60
32767,32454,2302,-157,-3,130,22942,23468,-1466,-98,-25,-21,8300,3960,-9774,-148,31,-63
32767,32736,2174,-137,-12,150,23014,23328,-1540,-96,-31,-5,8470,4008,-9824,-121,23,-58
32767,32682,2318,-207,-19,124,23122,23102,-1468,-71,-40,-19,8666,3972,-9940,-114,38,-50
32767,32070,2460,-263,-33,93,23156,23032,-1488,-38,-52,-45,8496,3728,-9862,-128,69,-45
32767,31918,2484,-236,-38,93,23204,23186,-1466,-15,-53,-50,8250,3524,-9782,-119,70,-47
32767,31510,2382,-148,-30,81,23300,23356,-1404,-19,-37,-39,8224,3470,-9678,-64,40,-44
32767,31902,2342,-64,-29,72,23202,23432,-1408,-45,-7,-20,8400,3418,-9628,-9,14,-44
32767,32404,2314,-49,-17,102,23096,23416,-1298,-56,-22,-29,8464,3514,-9622,18,15,-47
32767,32536,2444,-68,-29,92,23126,23332,-1314,-48,-38,-55,8288,3736,-9626,23,27,-51
32767,32712,2382,-170,-47,76,23068,23222,-1334,-8,-54,-64,8142,3984,-9650,30,23,-51
32767,32312,2466,-220,-57,80,22980,23206,-1388,26,-72,-57,8192,4160,-9782,18,5,-52
32767,31808,2538,-227,-51,73,23192,23244,-1260,33,-87,-52,8390,4208,-9706,-42,6,-59
32767,31688,2526,-171,-44,62,23432,23252,-1370,37,-81,-54,8460,4026,-9564,-109,21,-60
32767,32008,2500,-104,-39,58,23374,23276,-1246,2,-66,-73,8366,3750,-9608,-143,30,-58
32767,32468,2586,-90,-38,64,22966,23114,-1364,32,-61,-92,8378,3548,-9738,-131,19,-52
32767,32522,2598,-143,-39,69,22998,23150,-1282,31,-88,-92,8336,3502,-9770,-97,8,-52
32767,32186,2674,-166,-31,55,23280,23134,-1300,24,-77,-84,8388,3546,-9786,-77,18,-55
32767,31952,2672,-128,5,44,23232,23170,-1288,16,-65,-89,8342,3538,-9760,-84,23,-49
32767,31974,2468,-53,16,42,23204,23316,-1294,20,-66,-86,8294,3580,-9834,-65,7,-42
32767,32324,2440,-30,14,31,23060,23354,-1450,52,-62,-62,8358,3556,-9842,-32,-4,-38
32767,32606,2352,-97,1,26,23158,23226,-1224,52,-97,-78,8398,3518,-9680,-33,-3,-42
32767,32608,2112,-177,-18,34,23486,23188,-1256,15,-106,-115,8464,3410,-9736,-46,1,-55
32767,31964,2220,-192,-19,41,23266,22956,-1312,-40,-64,-146,8522,3386,-9926,-33,16,-54
32767,31684,2244,-126,-9,36,22824,22918,-1328,-17,-64,-147,8474,3434,-10014,-5,34,-39
32767,31822,2276,-70,-5,24,22822,22902,-1332,63,-91,-110,8366,3532,-9690,-3,48,-30
32767,32052,2300,-79,-8,8,22950,22752,-1032,82,-123,-126,8296,3446,-9490,-28,33,-44
32767,32488,2136,-86,-27,6,23416,23162,-1272,135,-132,-141,8368,3380,-9608,-35,8,-52
32767,32520,2084,-126,-41,20,23278,23150,-1446,127,-105,-114,8538,3448,-9850,-13,-1,-39
32767,32070,2440,-142,-48,21,23110,22908,-1102,74,-104,-157,8584,3598,-10048,12,19,-19
32767,31984,2370,-118,-51,19,23414,23244,-1376,71,-93,-173,8524,3676,-10004,11,47,-3
32767,31882,2476,-81,-43,3,22864,23092,-1120,25,-58,-145,8342,3578,-9828,-7,61,-6
32767,31808,2632,-39,-27,-22,22898,23154,-1282,45,-82,-147,8320,3452,-9746,-15,51,-15
32767,32098,2516,-22,-16,-47,23096,23090,-1348,68,-86,-131,8396,3362,-9726,-12,28,-9
32767,32174,2322,-32,-13,-66,23044,23160,-1362,42,-80,-117,8328,3388,-9744,13,29,10
32767,32268,2402,-54,-22,-66,23010,23236,-1372,22,-56,-104,8290,3362,-9782,56,22,23
32767,31782,2294,-56,-19,-115,22976,23316,-1508,23,-60,-86,8378,3404,-9858,70,14,18
32767,31554,2506,3,-37,-64,23050,23380,-1344,19,-52,-71,8348,3440,-9730,41,10,-1
32767,31888,2298,6,-35,-67,23158,23194,-1456,-4,-46,-41,8398,3458,-9630,13,5,-9
32767,32248,2400,-28,-22,-98,23208,23020,-1524,9,-47,-43,8346,3448,-9618,16,-2,-1
32767,32306,2582,-21,-35,-71,23228,23148,-1630,13,-39,-54,8410,3574,-9824,60,-8,10
32767,32158,2398,-6,-41,-45,23074,23246,-1556,13,-34,-39,8494,3772,-9882,79,-10,14
32767,31568,2482,-35,-31,-65,23032,23284,-1474,16,-44,-26,8532,3788,-9810,5,13,12
32767,31448,2250,-13,-42,-149,23136,23184,-1506,33,-59,-39,8274,3666,-9566,-40,19,9
32767,31104,2062,-19,-51,-72,23134,23214,-1532,37,-65,-41,8244,3364,-9528,-38,0,13
32767,31770,2402,-42,-54,-74,23224,23070,-1372,19,-61,-25,8378,3266,-9700,11,-28,20
32767,32282,2922,-25,-44,-120,23118,22922,-1358,27,-47,-27,8554,3158,-9824,50,-14,33
32767,32432,2720,-56,-33,-219,22894,22928,-1396,30,-43,-35,8458,3340,-9718,55,11,24
32767,31622,2502,12,-22,-160,22984,22842,-1280,32,-50,-18,8254,3586,-9740,64,6,16
32767,31594,2404,89,-22,-168,23160,22762,-1266,60,-58,-17,8244,3556,-9490,75,-18,30
32767,32286,2336,63,10,-250,23152,22922,-1186,65,-54,-28,8406,3608,-9488,76,-51,31
32767,32767,2258,51,-43,-233,23046,23030,-1270,53,-43,-7,8480,3474,-9546,67,-41,31
32767,32767,2482,-39,-41,-215,22848,23072,-1126,62,-48,8,8338,3424,-9602,60,-23,18
32767,32154,2414,-64,-52,-166,23038,23206,-1332,21,-40,9,8342,3554,-9648,59,-21,5
32767,31884,2306,-29,-53,-163,23038,23158,-1426,-1,-29,14,8296,3662,-9484,32,-18,4
32767,32280,2378,-22,-32,-117,22980,23036,-1498,-14,-29,4,8340,3570,-9456,-1,-22,3
32767,32767,2410,-35,-14,-184,23082,23002,-1508,-28,-38,-1,8360,3496,-9552,-15,-34,-9
32767,32767,2324,-42,-22,-134,23256,22986,-1480,-20,-29,-3,8568,3428,-9658,-10,-25,-14
32767,32606,2278,-99,-17,-93,23224,22946,-1372,-20,-15,-9,8510,3494,-9696,-8,11,-19
32767,32240,2202,-50,1,-100,23032,22978,-1408,-3,-11,6,8432,3540,-9638,-9,17,-26
32767,31962,2054,1,1,-40,23100,23048,-1252,13,-17,14,8532,3612,-9620,-1,11,-25
32767,32216,2004,-6,-10,-28,23214,23160,-1302,10,-22,22,8658,3586,-9668,6,12,-14
32767,32512,2104,-39,-16,-59,23208,23320,-1250,4,-22,29,8620,3458,-9712,16,36,-9
32767,32492,2212,-39,-36,-48,23218,23256,-1172,4,-23,29,8546,3500,-9704,26,56,-12
32767,31970,2268,-59,-38,-31,23198,23162,-1232,12,-31,28,8492,3524,-9652,30,71,-8
32767,31736,2328,-26,-29,-47,23114,23004,-1136,37,-48,33,8386,3572,-9536,20,75,-4
32767,32054,2154,40,-33,-54,23224,23076,-1276,67,-60,33,8364,3460,-9378,18,62,-4
32767,32226,2198,48,-41,-50,23178,23312,-1466,72,-42,37,8416,3408,-9480,39,51,-1
32767,32106,2276,16,-46,-46,23094,23402,-1614,42,-41,48,8488,3344,-9598,48,52,-5
32767,31882,2356,0,-48,-45,23184,23432,-1472,17,-44,56,8534,3434,-9514,44,66,-7
32767,31858,2390,15,-48,-43,23220,23248,-1320,-23,-35,42,8404,3480,-9518,29,73,-1
32767,31856,2366,31,-41,-41,22968,23148,-1300,-36,-28,32,8236,3502,-9376,14,65,0
32767,32180,2356,55,-41,-28,22786,23040,-1256,-29,-41,36,8192,3522,-9390,18,49,-7
32767,32328,2514,31,-40,-16,22940,23090,-1290,-14,-62,45,8302,3408,-9464,24,37,-15
32767,32180,2508,-11,-30,-16,23180,23236,-1332,-21,-51,46,8418,3480,-9558,7,50,-25
32767,32236,2356,-23,-21,-19,23236,23432,-1366,-17,-44,59,8424,3528,-9610,-2,55,-36
32767,32170,2350,-34,-14,-12,23348,23632,-1410,-38,-26,69,8464,3500,-9700,-14,57,-45
32767,31964,2256,-52,-13,-11,23240,23670,-1390,-67,-15,65,8574,3464,-9680,-33,57,-49
32767,31856,2254,-51,-16,-10,22962,23730,-1322,-99,-11,48,8514,3384,-9606,-41,67,-44
32767,31920,2136,-39,-24,-5,23202,23644,-1588,-95,-15,80,8412,3332,-9574,-40,73,-38
32767,32104,2182,-45,-33,3,23150,23392,-1322,-136,-13,90,8368,3234,-9636,-25,64,-32
32767,32140,2314,-53,-44,15,23444,23622,-1578,-102,-14,89,8506,3170,-9492,-3,55,-25
32767,32040,2412,-47,-45,22,23250,23638,-1604,-112,7,105,8478,3200,-9642,19,55,-16
32767,32130,2474,-21,-46,15,23122,23542,-1544,-93,-6,94,8352,3392,-9612,54,51,-2
32767,32534,2524,-41,-46,13,23224,23526,-1540,-111,-27,74,8384,3616,-9720,73,32,18
32767,32396,2606,-102,-44,14,23260,23328,-1628,-101,-12,92,8508,3754,-9834,73,32,43
32767,31842,2618,-106,-41,15,22988,23150,-1240,-100,-21,85,8450,3708,-9774,40,59,56
32767,31522,2548,-12,-29,14,23254,23362,-1586,-59,-30,79,8336,3668,-9574,-1,59,38
32767,32052,2480,87,-16,9,23042,23440,-1450,-28,-18,105,8342,3524,-9354,-14,34,18
32767,32767,2398,51,-22,0,22936,23406,-1466,-34,-28,88,8440,3214,-9396,10,10,16
32767,32700,2314,-60,-26,15,23132,23502,-1560,-36,-33,84,8576,3176,-9568,34,16,26
32767,32190,2250,-102,-32,26,23118,23444,-1616,-39,-24,102,8448,3368,-9676,32,44,36
32767,31878,2264,-59,-37,44,23100,23408,-1498,-23,-36,99,8232,3544,-9718,23,45,30
32767,31968,2462,-29,-35,51,23176,23630,-1680,-5,-29,99,8252,3572,-9654,9,25,11
32767,32164,2564,-37,-28,54,23004,23630,-1702,-10,-22,108,8472,3568,-9536,-26,21,-8
32767,32172,2626,-55,-18,42,23012,23580,-1552,-60,-33,88,8420,3448,-9510,-58,36,-6
32767,32302,2428,-62,-9,65,23216,23560,-1544,-80,-32,77,8294,3286,-9528,-63,37,3
32767,32408,2266,-72,-6,79,23164,23432,-1480,-119,-20,69,8218,3358,-9476,-36,20,8
32767,32632,2258,-97,-7,89,23186,23396,-1392,-96,-5,71,8212,3512,-9658,-11,2,13
32767,32492,2322,-124,-18,75,23060,23342,-1300,-94,-1,67,8476,3632,-9566,-27,-1,2
32767,32564,2328,-124,-10,125,22968,23442,-1456,-82,-2,50,8562,3766,-9792,-72,15,-8
32767,32674,2386,-95,-7,75,22948,23408,-1368,-105,-13,38,8460,3624,-9762,-117,41,0
32767,32767,2264,-117,-8,110,23152,23432,-1334,-102,-20,33,8396,3562,-9754,-132,46,10
32767,32684,2262,-142,-1,109,23124,23298,-1450,-105,-13,25,8380,3540,-9858,-120,37,25
32767,32580,2096,-169,-21,172,22998,23272,-1392,-89,-26,13,8582,3574,-9858,-91,27,34
32767,31692,2170,-186,-23,154,23332,23604,-1532,-10,-30,24,8684,3488,-9858,-86,50,31
32767,31784,2230,-107,-29,185,23302,23750,-1408,-27,-23,11,8496,3524,-9856,-111,81,21
32767,32382,2338,-54,-16,141,23274,23820,-1464,-52,-18,-8,8230,3284,-9714,-119,66,30
32767,32416,2326,-91,-40,164,23106,23710,-1534,-70,-25,-2,8222,3220,-9728,-96,46,38
32767,31892,2306,-90,-19,140,23144,23560,-1478,-89,-26,0,8330,3218,-9776,-52,32,45
32767,32516,2256,-62,-46,151,23078,23400,-1640,-81,-15,-5,8444,3288,-9740,-18,32,42
32767,32284,2192,-108,-25,115,22906,23378,-1596,-73,-23,-4,8468,3410,-9788,-2,38,31
32767,32296,2236,-80,-20,165,23120,23494,-1632,-48,-29,2,8434,3420,-9782,-11,43,21
32767,32488,2224,-51,-10,111,23176,23802,-1606,-37,-27,4,8418,3436,-9742,-16,46,17
32767,32240,2056,-44,-8,133,23062,23892,-1616,-72,-7,2,8446,3490,-9758,-9,47,12
32767,32282,2132,-14,-5,194,23092,23860,-1724,-103,-1,23,8514,3544,-9762,-19,61,7
32767,32484,2342,-47,-4,178,23242,23716,-1568,-127,-7,26,8480,3466,-9774,-49,73,8
32767,32166,2174,-107,-14,165,23278,23432,-1398,-139,-8,-26,8318,3356,-9710,-74,79,3
32767,32014,2338,-102,-14,125,23222,23398,-1446,-132,-8,-26,8290,3382,-9736,-66,70,-6
32767,32656,2096,-84,-23,152,23228,23266,-1400,-101,-12,-7,8226,3490,-9698,-44,55,-13
32767,32242,2156,-132,-12,142,23156,23422,-1316,-72,-17,-17,8260,3512,-9762,-51,44,-15
32767,32140,2176,-124,-37,121,23084,23610,-1372,-62,-20,-25,8338,3408,-9866,-73,37,-14
32767,32254,2344,-121,-34,112,23182,23566,-1314,-59,-32,-21,8388,3252,-9802,-87,43,-14
32767,32486,2472,-165,-42,75,23282,23452,-1334,-67,-41,-23,8398,3222,-9842,-76,39,-24
32767,32152,2486,-206,-39,87,23334,23406,-1286,-53,-45,-22,8230,3292,-9792,-47,29,-23
32767,31790,2244,-158,-32,97,23024,23326,-1484,-33,-49,-35,8250,3386,-9858,-19,17,-26
32767,31984,2252,-91,-11,104,22902,23376,-1460,-1,-67,-36,8332,3506,-9948,-1,12,-30
32767,32676,2288,-81,-14,71,23318,23460,-1478,3,-72,-25,8466,3578,-9914,-8,16,-23
32767,32632,2286,-162,-25,61,23340,23596,-1570,-19,-40,-25,8512,3488,-9832,-26,26,-11
32767,32266,2282,-174,-29,51,22826,23552,-1644,-34,-27,-28,8444,3432,-9816,-35,30,-4
32767,32256,2352,-125,-33,46,22766,23486,-1592,-50,-48,-43,8394,3308,-9828,-39,30,-7
32767,32474,2218,-85,-31,45,23088,23382,-1606,-37,-75,-49,8416,3310,-9840,-38,23,-15
32767,32584,2206,-94,-26,53,23264,23274,-1676,5,-94,-59,8414,3298,-9898,-42,17,-30
32767,32412,2056,-107,-16,103,23398,23456,-1556,58,-100,-65,8414,3286,-9950,-35,25,-36
32767,32640,2054,-106,-16,120,23440,23550,-1752,51,-79,-28,8384,3334,-9892,-28,33,-41
32767,32688,2240,-125,-33,73,22870,23418,-1480,-35,-55,-75,8338,3410,-9842,-35,35,-50
32767,32767,2150,-159,-38,61,22984,23546,-1690,-34,-55,-83,8370,3378,-9766,-58,31,-54
32767,32767,2148,-176,-35,68,22876,23134,-1546,-28,-50,-29,8476,3314,-9924,-69,25,-52
32767,32714,2146,-191,-37,73,23050,23044,-1360,23,-83,-33,8520,3440,-10004,-54,39,-38
32767,32410,2248,-214,-49,63,23162,23396,-1498,61,-78,-45,8520,3508,-9908,-57,51,-26
32767,32022,2298,-222,-55,60,23154,23610,-1414,16,-62,-29,8358,3458,-9726,-85,48,-34
32767,32404,2284,-148,-66,45,23058,23594,-1540,-7,-59,-40,8332,3328,-9784,-92,36,-26
32767,32650,2420,-172,-65,40,22958,23476,-1462,-19,-60,-55,8402,3254,-9954,-84,29,-34
32767,32640,2430,-220,-73,33,22968,23176,-1456,-11,-80,-63,8448,3252,-9880,-49,40,-19
32767,32240,2416,-254,-68,29,23120,23138,-1476,14,-92,-74,8470,3178,-9794,-44,37,-3
32767,31812,2488,-205,-58,25,23188,23236,-1512,45,-82,-60,8434,3200,-9758,-32,35,7
32767,32118,2474,-113,-50,15,23086,23282,-1572,42,-75,-54,8372,3284,-9844,-7,33,16
32767,32294,2496,-89,-41,8,23024,23312,-1538,27,-74,-70,8256,3280,-10000,21,35,21
32767,32364,2490,-107,-32,2,23030,23172,-1382,-1,-80,-105,8360,3292,-9908,22,17,3
32767,32048,2316,-99,-20,-2,23236,23108,-1456,28,-80,-87,8392,3306,-9912,-24,16,-9
32767,32394,2188,-71,-21,-1,23178,23058,-1306,64,-80,-69,8342,3226,-9942,-56,24,-4
32767,32680,2174,-90,-29,6,23130,23276,-1338,81,-82,-83,8436,3216,-10006,-36,14,6
32767,32428,2164,-139,-38,13,23136,23578,-1366,74,-75,-90,8592,3234,-10104,-13,8,6
32767,31900,2278,-142,-36,22,23046,23626,-1362,45,-74,-75,8672,3322,-10318,-10,23,8
32767,31544,2420,-74,-28,10,22964,23320,-1410,25,-98,-71,8604,3286,-10338,-10,57,16
32767,31764,2350,-4,-18,-14,23116,23146,-1160,-11,-117,-144,8338,3190,-9960,-19,73,16
32767,32406,2222,44,-18,-37,23256,23152,-1446,53,-92,-65,8150,3100,-9796,-15,25,19
32767,32622,1836,8,-55,-107,23220,23140,-1364,79,-95,-70,8326,2940,-9666,19,-7,20
32767,32298,2014,-131,-52,-44,23064,23414,-1422,55,-74,-121,8486,3050,-9864,53,-15,18
32767,31750,2018,-44,-62,-35,22966,23396,-1428,55,-74,-97,8622,3176,-10076,59,0,15
32767,32014,2260,27,-42,-7,23078,23110,-1340,65,-95,-87,8482,3424,-10010,41,33,8
32767,32546,2460,49,-38,-19,23136,22962,-1272,54,-115,-114,8276,3622,-9926,-5,46,0
32767,32767,2318,-15,-38,-58,22968,23004,-1232,52,-106,-140,8228,3540,-9794,-59,30,-6
32767,32560,2196,-79,-46,-30,23076,23324,-1398,82,-93,-94,8340,3262,-9880,-53,6,1
32767,32216,2202,-95,-46,-34,23128,23162,-1366,86,-75,-64,8578,3100,-10186,-6,17,9
32767,31988,2298,-51,-39,-28,23090,23106,-1238,84,-95,-103,8544,3138,-10084,5,42,14
32767,32006,2434,5,-31,-51,23128,23374,-1500,53,-87,-132,8366,3124,-10010,-5,54,7
32767,32250,2310,25,-17,-58,22918,23154,-1332,33,-77,-101,8254,3132,-9724,-2,40,5
32767,32702,2176,22,-32,-82,23032,23168,-1284,15,-79,-89,8342,3128,-9760,32,9,8
32767,32312,2168,-50,-37,-103,23234,23350,-1394,39,-64,-72,8512,3118,-9904,72,-3,16
32767,31624,2114,-84,-57,-75,23012,23446,-1446,27,-51,-67,8624,3220,-9910,71,11,10
32767,31614,2192,-58,-50,-61,22914,23462,-1500,17,-50,-70,8440,3278,-9904,55,29,1
32767,31624,2270,45,-40,-94,23044,23316,-1614,15,-70,-65,8272,3372,-9954,47,31,1
32767,32222,2282,103,-55,-42,23172,23046,-1454,-2,-86,-82,8290,3476,-9860,30,12,6
32767,32410,2490,28,-60,-79,23166,23084,-1466,-7,-76,-81,8464,3428,-9826,2,0,9
32767,32767,2436,-30,-55,-88,23170,23012,-1268,-5,-56,-48,8584,3304,-9888,0,3,11
32767,32456,2610,-72,-56,-105,23054,23194,-1346,28,-50,-31,8552,3214,-10100,26,18,22
32767,31340,2320,-78,-60,-170,23006,23468,-1558,69,-39,-9,8406,3190,-9938,24,45,17
32767,31346,2654,23,-28,41,22932,23456,-1500,58,-47,-9,8222,3296,-9836,16,41,11
32767,32572,2436,78,-28,-201,23182,23502,-1746,9,-56,-51,8084,3260,-9754,25,9,13
32767,32767,2022,42,-43,-62,23062,23256,-1512,-28,-46,-34,8294,3204,-9884,45,-14,22
32767,32767,2328,-62,-47,-156,22990,23088,-1518,14,-54,-27,8594,3274,-9968,49,-7,29
32767,32020,2346,-65,-36,-143,23038,23116,-1444,50,-63,-21,8614,3244,-9880,46,14,32
32767,32318,2536,4,-52,-125,23022,23062,-1466,81,-63,-11,8458,3292,-9908,47,25,29
32767,32296,2532,31,-46,-196,22960,23074,-1598,134,-70,-9,8256,3310,-9736,39,37,24
32767,32484,2466,36,-22,-208,23108,23226,-1592,143,-80,-13,8080,3372,-9646,24,18,7
32767,32738,2190,107,-33,-145,23302,23510,-1656,119,-62,-9,8250,3344,-9730,26,-25,2
32767,32767,2382,40,-33,-178,23144,23792,-1532,48,-34,-11,8502,3212,-9854,47,-37,14
32767,31530,2134,-79,-42,-142,23004,23730,-1620,17,-30,-13,8556,3232,-9918,52,-2,21
32767,31080,2164,-73,-56,-54,22848,23420,-1692,30,-25,-18,8350,3348,-9664,17,35,8
32767,31146,2138,25,-31,-152,22816,23150,-1716,86,-52,-16,8046,3338,-9558,-9,12,-10
32767,32426,2278,75,-24,-137,23260,23192,-1606,94,-69,-2,8148,3276,-9650,-15,-24,-23
32767,32767,2254,64,-37,-86,23464,23284,-1632,98,-42,14,8410,3282,-9790,-8,-32,-14
32767,32767,2348,-69,-21,-98,23244,23402,-1530,80,-22,13,8592,3236,-9886,9,-13,-2
32767,32536,2286,-130,-30,-112,22896,23446,-1382,36,-16,-1,8680,3362,-9906,16,6,-3
32767,31830,2234,-92,-32,-69,22782,23370,-1392,32,-17,2,8678,3334,-9934,13,23,-2
32767,31898,2298,-49,-14,-133,22884,23200,-1254,36,-34,26,8540,3302,-9780,-15,46,-7
32767,31544,2166,28,-2,-116,23182,23224,-1206,30,-42,43,8202,3194,-9572,-45,35,-13
32767,31988,2206,92,-19,-61,23364,23316,-1160,32,-38,48,8164,3054,-9552,-25,4,-9
32767,32767,2188,5,-32,-24,23390,23446,-1116,13,-30,42,8272,3082,-9794,37,-19,-3
32767,32668,2176,-70,-30,-19,23428,23498,-1062,4,-37,31,8556,3314,-9988,87,-14,3
32767,32276,2172,-98,-32,-42,23286,23426,-1062,19,-33,33,8738,3532,-10080,80,15,2
32767,31768,2098,-76,-29,-27,22974,23356,-1016,7,-37,40,8710,3620,-10002,25,56,-1
32767,31798,2208,-24,-20,-53,23088,23410,-1226,-7,-51,58,8416,3448,-9790,-30,73,-7
32767,32418,2118,17,-30,-59,23160,23482,-1288,-43,-58,67,8240,3254,-9718,-35,63,-8
32767,32498,2192,10,-33,-32,23198,23542,-1300,-77,-54,50,8562,3114,-9892,9,46,-3
32767,32054,2256,8,-29,-28,23346,23614,-1394,-101,-52,45,8504,3156,-9956,43,64,0
32767,31960,2214,66,-21,-44,23140,23338,-1304,-148,-43,23,8430,3196,-9922,56,80,-12
32767,31752,2190,91,-4,-63,23270,23278,-1344,-154,-32,8,8430,3282,-9864,46,76,-22
32767,32012,2092,177,1,-66,23152,23358,-1256,-175,-16,43,8482,3288,-9800,26,78,-19
32767,32767,2226,180,-17,-55,23378,23614,-1424,-143,-3,72,8472,3228,-9824,20,83,-13
32767,32767,2110,41,-45,-41,23062,23868,-1626,-139,18,105,8330,3180,-9908,30,86,-3
32767,32630,1986,-97,-61,-32,22728,23894,-1378,-178,-6,82,8230,3222,-10016,51,88,1
32767,31936,2068,-68,-71,-40,23442,24242,-1658,-200,-15,75,8578,3298,-10254,84,90,-4
32767,31880,2152,28,-52,-51,23324,24034,-1726,-232,31,127,8830,3324,-10096,56,114,-12
32767,32282,2240,130,-36,-64,22990,23720,-1684,-281,35,107,8704,3212,-9894,5,151,-17
32767,32684,2074,143,-36,-65,23216,23800,-1864,-260,13,92,8348,3112,-9794,-11,153,-10
32767,32767,1960,91,-57,-56,23274,23430,-1804,-250,33,120,8104,3006,-9770,20,118,8
32767,32764,2172,-7,-79,-33,23074,23234,-1554,-227,17,112,8202,3062,-9912,75,86,20
32767,32208,2272,-37,-93,-13,23524,23594,-1914,-175,17,118,8396,3086,-9902,91,78,11
32767,32020,2466,6,-83,-9,23064,23584,-1748,-137,46,170,8436,3168,-9882,67,94,-7
32767,32182,2634,57,-69,-15,22824,23596,-1516,-178,8,126,8406,3310,-9764,37,99,-7
32767,32767,2630,79,-53,-8,23254,23806,-1650,-113,-16,105,8354,3368,-9726,26,83,37
32767,32767,2644,-46,-57,19,23218,23556,-1528,-141,-4,105,8250,3412,-9814,73,62,71
32767,32710,2756,-141,-63,37,22960,23182,-1540,-133,-11,78,8156,3626,-9934,103,42,77
32767,31990,2732,-166,-57,34,23336,23288,-1498,-99,-27,44,8196,3758,-9902,69,21,59
32767,31898,2840,-51,-49,40,23120,23092,-1442,-72,-3,66,8414,3814,-9792,9,4,24
32767,32382,2838,28,-30,44,22798,23076,-1260,-95,-17,31,8536,3706,-9702,-75,5,-1
32767,32767,2890,25,-17,40,23222,23318,-1500,-44,-24,42,8472,3406,-9838,-132,19,0
32767,32767,2766,-79,-12,59,22834,23050,-1276,-68,-7,56,8304,3270,-9856,-148,24,10
32767,32668,2490,-170,-4,89,22686,23126,-1094,-71,-24,17,8240,3322,-9978,-120,-4,14
32767,32046,2374,-174,-12,76,23066,23380,-1362,-50,-37,21,8258,3364,-9842,-113,-24,3
32767,32394,2326,-171,-6,106,23116,23416,-1228,-65,-16,48,8294,3288,-9836,-150,-30,-15
32767,32324,2252,-157,-17,100,23168,23488,-1474,-71,-20,25,8304,3110,-9690,-174,-42,-26
32767,32767,2200,-138,-23,158,23164,23562,-1370,-92,-24,9,8230,3064,-9816,-153,-59,-25
32767,32767,2408,-159,-25,184,23142,23394,-1320,-117,-20,-9,8280,3098,-10076,-95,-67,-10
32767,32767,2452,-252,-46,152,23068,23316,-1470,-108,-24,-16,8364,3302,-10050,-67,-66,0
32767,32767,2420,-341,-35,157,23040,23332,-1524,-82,-32,-16,8404,3608,-10072,-99,-45,-12
32767,32684,2182,-312,-6,232,23050,23342,-1522,-61,-28,-12,8420,3678,-10022,-162,-22,-24
32767,32767,2074,-294,-18,145,23098,23516,-1590,-43,-33,1,8572,3674,-10102,-196,-23,-20
32767,32767,1990,-320,-24,186,23252,23612,-1648,-58,-17,1,8722,3476,-10150,-219,7,-10
32767,32542,2078,-294,-35,201,23112,23544,-1640,-70,-8,2,8644,3282,-10204,-228,40,-6
32767,31730,2074,-264,-35,205,22942,23408,-1622,-77,-24,-15,8438,3018,-9990,-219,50,-8
32767,32546,2008,-219,-43,248,23158,23306,-1504,-57,-30,-13,8384,3044,-10008,-201,34,-14
32767,32767,2002,-196,-11,210,23254,23318,-1476,-43,-33,-6,8534,3070,-10188,-161,21,5
32767,32598,2358,-200,-60,159,23238,23512,-1386,-43,-19,-11,8578,3038,-10170,-108,32,14
32767,32300,2282,-237,-49,260,23038,23632,-1514,-48,-19,-12,8472,3276,-10264,-49,70,18
32767,31998,2518,-239,-37,194,22896,23740,-1420,-62,-19,-4,8296,3260,-10230,-48,74,16
32767,31514,2498,-140,-40,147,23038,23628,-1456,-91,-26,10,8334,3160,-9974,-44,58,17
32767,31794,2302,-101,-49,122,23144,23466,-1492,-94,-30,13,8398,3076,-9940,-40,46,13
32767,32134,2222,-89,-42,135,23284,23356,-1510,-94,-27,5,8524,3074,-9932,-28,50,24
32767,32220,2328,-133,-74,42,23160,23322,-1508,-86,-26,-4,8426,2944,-9840,-17,56,29
32767,32432,2378,-160,-58,91,23046,23342,-1602,-68,-25,-19,8240,3146,-9952,-20,50,14
32767,31850,2452,-134,-58,81,23224,23480,-1670,-52,-27,-19,8146,3176,-9828,-30,31,8
32767,32188,2560,-136,-66,54,23212,23490,-1714,-57,-22,-9,8282,3114,-9848,-39,17,-13
32767,31892,2578,-132,-51,74,23264,23396,-1594,-49,-21,-10,8292,3212,-9796,-57,17,-32
32767,32090,2462,-81,-29,79,23252,23466,-1514,-58,-18,-20,8288,3158,-9872,-66,6,-33
32767,32378,2518,-120,-19,88,23136,23404,-1572,-76,-4,-14,8376,3208,-9990,-44,-5,-24
32767,32116,2484,-165,-17,77,22846,23222,-1404,-84,-9,-8,8434,3222,-10098,-39,-2,-18
32767,32042,2370,-191,-23,63,22764,23068,-1434,-63,-27,-15,8346,3292,-10016,-46,10,-23
32767,31712,2410,-177,-21,58,22862,23094,-1466,-30,-43,-20,8292,3188,-10050,-50,9,-30
32767,32058,2404,-129,-25,51,23232,23232,-1538,-1,-46,-17,8346,3164,-9914,-53,1,-37
32767,32358,2466,-126,-19,46,23322,23358,-1504,5,-42,-11,8502,2958,-10044,-51,-2,-35
32767,32458,2462,-160,-17,46,23146,23490,-1494,-20,-28,-20,8400,2976,-9922,-23,5,-33
32767,32400,2236,-159,-14,42,22930,23648,-1502,-52,-21,-18,8416,3064,-9980,-11,1,-26
32767,32548,2210,-169,-19,48,22860,23534,-1544,-71,-27,-19,8470,3064,-10070,-5,2,-19
32767,32126,2234,-178,-21,52,22938,23346,-1542,-86,-35,-34,8488,3056,-10146,0,9,-27
32767,31860,2168,-128,-20,59,23174,23198,-1524,-95,-40,-29,8538,3108,-10066,-7,17,-35
32767,32150,2192,-70,-9,77,23068,23040,-1560,-54,-32,-22,8532,3132,-10016,-22,24,-34
32767,32286,2330,-61,-7,75,22962,23120,-1724,-12,-51,-43,8452,3108,-9874,-26,29,-22
32767,32492,2270,-85,-14,75,23014,23302,-1574,25,-73,-49,8210,3122,-9880,-25,26,-15
32767,32434,2276,-108,-24,74,23098,23602,-1562,14,-70,-21,8248,3078,-9908,1,-5,-22
32767,32524,2312,-122,-32,71,23156,23546,-1638,-4,-47,-3,8560,3138,-9918,-2,-13,-34
32767,32722,2440,-166,-29,55,22994,23360,-1680,-5,-52,-12,8592,3052,-10010,-19,11,-33
32767,32398,2454,-189,-15,56,22874,23272,-1730,-6,-74,-38,8482,3026,-10030,-33,34,-24
32767,32358,2384,-173,-11,57,22838,23196,-1712,27,-93,-52,8296,3120,-10114,-36,33,-11
32767,32080,2194,-175,-8,58,23152,23218,-1590,39,-102,-29,8298,3116,-10044,-29,17,-7
32767,31984,2120,-146,-9,58,23280,23276,-1642,44,-71,-25,8502,3114,-9972,-26,2,-24
32767,32112,2128,-133,-14,55,23090,23400,-1686,56,-54,-25,8706,3062,-9952,-37,6,-29
32767,32248,2212,-135,-23,44,22852,23408,-1562,66,-63,-31,8624,2884,-9928,-29,42,-20
32767,32310,2208,-140,-28,36,22832,23348,-1582,77,-92,-53,8458,2946,-9830,-5,49,-10
32767,32214,2080,-138,-41,25,23004,23314,-1488,93,-109,-54,8464,3014,-9924,5,32,0
32767,32314,2182,-125,-57,26,23226,23262,-1670,88,-117,-42,8434,2976,-9904,5,24,2
32767,32258,2312,-140,-65,28,23238,23138,-1530,97,-114,-50,8408,2950,-9980,0,31,-8
32767,31954,2382,-142,-62,34,23030,23152,-1412,32,-97,-106,8312,2964,-9982,-4,35,-25
32767,31612,2392,-119,-42,34,22936,23136,-1384,31,-83,-97,8456,2990,-9908,-20,30,-30
32767,31818,2370,-60,-31,31,22888,22994,-1264,43,-86,-77,8564,2954,-9822,-29,24,-21
32767,32218,2330,-40,-26,27,22962,22858,-1306,102,-114,-75,8374,2910,-9868,-7,27,-5
32767,32474,2298,-76,-33,20,23102,23046,-1276,138,-120,-106,8280,3026,-9924,13,17,-6
32767,32484,2204,-149,-51,30,23162,23268,-1330,139,-118,-106,8274,3118,-9992,12,3,-17
32767,32228,2380,-162,-56,27,22894,23206,-1290,75,-101,-119,8498,3048,-10004,-11,5,-30
32767,31966,2364,-168,-48,25,22984,23534,-1334,47,-80,-124,8712,2982,-9942,-45,21,-28
32767,31960,2282,-123,-39,23,23104,23386,-1420,29,-71,-51,8648,2840,-9942,-59,37,-11
32767,32178,2246,-88,-38,19,23058,23136,-1390,32,-92,-84,8428,2754,-10004,-21,37,4
32767,32120,2268,-113,-36,16,23186,23318,-1528,20,-80,-132,8442,2886,-10032,30,21,10
32767,31988,2330,-139,-45,12,23200,23212,-1578,31,-80,-113,8542,2886,-10020,27,33,-1
32767,31884,2396,-120,-44,3,23194,23028,-1522,32,-80,-118,8498,2834,-9914,4,33,-18
32767,32444,2214,-60,-41,4,22928,23148,-1340,31,-89,-158,8508,2810,-10018,24,17,-5
32767,32210,2348,-59,-33,7,22896,23414,-1486,69,-97,-140,8638,2904,-10240,69,19,23
32767,31916,2262,-68,-32,-4,23006,23106,-1368,61,-107,-107,8644,2944,-10242,91,48,29
32767,31846,2306,-60,-31,-16,23230,23286,-1498,100,-106,-120,8528,3074,-10030,59,68,11
32767,31838,2282,-16,-25,-26,22988,23382,-1674,106,-80,-94,8356,3024,-9942,7,71,-7
32767,32164,2096,28,-30,-38,22756,23268,-1574,67,-88,-100,8270,2962,-9820,0,50,-8
32767,32234,2102,20,-29,-24,22854,23414,-1608,59,-86,-124,8530,2894,-9986,53,29,23
32767,32244,2168,8,-40,-17,23234,23680,-1638,51,-77,-80,8654,2882,-10112,90,51,35
32767,31928,2420,-10,-46,-31,22796,23236,-1436,32,-72,-81,8630,2878,-10156,86,75,25
32767,31724,2486,19,-35,-48,22988,23456,-1742,80,-91,-67,8562,2970,-10112,47,83,9
32767,31962,2426,67,-26,-72,23166,23346,-1662,81,-91,-43,8436,2976,-10000,31,84,14
32767,32074,2350,75,-31,-100,23234,23208,-1768,93,-83,-61,8284,2954,-9800,46,72,29
32767,31930,2218,42,-45,-173,23096,23204,-1594,62,-87,-99,8270,2890,-9748,46,43,36
32767,31668,2180,31,-60,-99,23026,23240,-1660,62,-86,-88,8388,2660,-9898,54,25,31
32767,31804,2286,23,-69,-75,22950,23202,-1414,55,-77,-61,8398,2744,-10014,85,14,24
32767,31600,2496,7,-56,-79,23188,23310,-1308,87,-74,-8,8370,3080,-10136,119,32,28
32767,32094,2668,9,-44,-142,23274,23420,-1312,91,-57,0,8234,3314,-9914,90,36,28
32767,31800,2600,53,-34,-210,22936,23548,-1500,79,-54,-12,8154,3208,-9640,40,14,25
32767,32052,2262,46,-37,-190,22806,23458,-1580,54,-65,-31,8224,2818,-9560,6,-13,9
32767,32767,2370,24,-25,-143,23168,23350,-1702,26,-80,-32,8400,2744,-9820,25,-37,-3
32767,32078,2348,39,-36,-127,23350,23150,-1526,6,-66,-36,8584,2900,-10030,77,-37,10
32767,32030,2318,-3,-39,9,23228,23162,-1462,-4,-41,-34,8526,3240,-10190,91,-13,22
32767,32248,2202,-85,-16,-147,22922,23198,-1362,23,-39,-19,8398,3506,-10108,50,-3,14
32767,31494,2196,-18,-20,-158,22794,23164,-1476,62,-58,-11,8504,3304,-9886,-31,-12,7
32767,31542,2122,25,-42,-110,22990,23170,-1472,81,-79,-14,8632,3006,-9960,-32,-5,16
32767,32250,2540,-34,-52,-193,23212,23326,-1522,59,-73,-9,8518,2804,-9998,-7,8,17
32767,32412,2316,-24,-58,-146,23374,23374,-1508,8,-38,4,8396,2764,-9958,17,8,19
32767,32224,2590,-3,-43,-228,23142,23370,-1514,-25,-17,12,8254,2714,-9876,35,0,19
32767,32098,2254,5,-25,-133,22804,23294,-1432,-41,-16,6,8336,2986,-9906,62,-20,7
32767,31954,2144,85,-32,-164,22660,23216,-1436,-16,-36,5,8412,3140,-10014,82,-27,11
32767,32132,2088,98,-24,-165,23080,23224,-1400,-7,-51,13,8526,3086,-9914,59,-13,10
32767,32168,2114,41,-31,-160,23420,23388,-1486,-6,-22,31,8520,2948,-9788,11,9,-16
32767,32690,2258,-14,-32,-93,23082,23482,-1616,-5,-7,26,8488,2938,-9898,6,11,-17
32767,32468,2234,-4,-42,-120,22882,23592,-1658,3,-14,12,8420,2942,-10016,37,13,-6
32767,32230,2182,-8,-23,-96,22990,23574,-1506,-6,-28,11,8452,3160,-10108,50,21,-8
32767,31956,2232,60,-25,-62,23258,23348,-1562,-29,-21,22,8546,3182,-10056,39,32,-6
32767,32204,2206,56,-9,-68,23252,23210,-1630,-44,-9,29,8640,3100,-10078,21,48,-3
32767,31994,2062,26,-14,-119,23064,23184,-1580,-35,-13,25,8648,2996,-9946,17,59,5
32767,31792,1990,-4,-22,-138,22984,23262,-1536,10,-33,25,8548,2818,-9788,19,68,5
32767,31696,1984,52,-41,-84,23234,23472,-1418,35,-44,41,8300,2678,-9666,55,52,-3
32767,32378,2292,79,-35,-97,23396,23608,-1422,29,-34,53,8248,2766,-9718,69,32,-8
32767,32767,2302,109,-29,-68,23248,23630,-1470,-16,-11,52,8258,3084,-9798,86,19,-1
32767,32767,2272,68,-32,-54,23022,23572,-1512,-53,-2,56,8372,3408,-9972,98,16,9
32767,32490,2362,3,-39,-32,22998,23430,-1488,-64,-21,54,8578,3512,-10062,70,30,7
32767,31960,2304,-29,-31,-43,23056,23252,-1320,-67,-37,35,8678,3324,-9992,0,60,-9
32767,31724,2276,14,-23,-56,23190,23230,-1246,-41,-46,33,8574,3046,-9838,-63,86,-20
32767,32090,2120,54,-21,-62,23182,23430,-1416,2,-37,63,8386,2810,-9738,-81,84,-13
32767,32474,2160,52,-39,-42,23136,23554,-1486,14,-34,69,8264,2704,-9826,-16,52,3
32767,32404,2274,2,-52,-18,23080,23728,-1544,-28,-24,57,8358,2820,-10008,41,29,3
32767,32052,2344,-7,-50,-19,23084,23754,-1520,-88,-17,54,8568,2848,-10020,52,38,-1
32767,32044,2426,9,-31,-33,23044,23586,-1524,-122,-15,60,8538,2906,-9852,20,65,-11
32767,32122,2280,22,-20,-47,23046,23412,-1410,-128,-27,51,8450,2990,-9676,-16,68,-15
32767,32664,2036,21,-31,-40,23196,23402,-1586,-106,-24,59,8382,2996,-9636,-7,39,-2
32767,32767,2082,-40,-48,-12,23054,23420,-1598,-79,-18,74,8438,2946,-9840,34,17,5
32767,32264,2276,-90,-56,13,23068,23622,-1632,-46,-26,80,8522,3042,-9954,51,27,-9
32767,31896,2512,-70,-47,4,23136,23832,-1528,-52,-27,79,8546,3140,-9988,-2,56,-33
32767,31990,2410,-35,-35,0,22986,23814,-1604,-59,-28,90,8308,3204,-9848,-81,72,-42
32767,32294,2334,-5,-22,1,22952,23706,-1546,-103,-44,82,8266,2982,-9872,-81,57,-25
32767,32767,2166,-60,-36,14,23114,23650,-1674,-107,-49,94,8422,2784,-10022,-34,40,-8
32767,32342,2232,-129,-43,18,23308,23660,-1584,-97,-43,122,8590,2742,-10044,1,45,-7
32767,31878,2252,-126,-41,10,23506,23812,-1680,-88,-17,157,8626,2834,-10100,-3,66,-20
32767,31830,2268,-36,-29,2,23014,23858,-1558,-122,-3,140,8500,2974,-9978,-17,71,-22
32767,32254,2252,34,-26,4,23222,24026,-1596,-164,-4,105,8448,2952,-9940,-10,55,-4
32767,32604,2280,28,-38,17,23106,23764,-1608,-188,23,148,8526,2914,-9992,15,49,18
32767,32506,2306,-47,-44,37,22634,23446,-1442,-219,11,132,8538,2960,-10056,25,68,18
32767,32224,2368,-70,-50,40,23294,23638,-1706,-169,-16,117,8424,2996,-9944,-3,78,27
32767,32348,2372,-24,-45,22,23448,23576,-1602,-166,12,141,8318,2914,-9768,-28,63,41
