ax,ay,az,gx,gy,gz,ax,ay,az,gx,gy,gz,ax,ay,az,gx,gy,gz
32767,32634,2106,-55,-27,33,23778,23758,-524,-63,-30,18,8968,8546,-7468,-26,36,-4
32767,32767,2092,-53,-30,25,23660,23566,-578,-109,-26,12,8996,8532,-7552,-27,36,-7
32767,32767,2194,-62,-36,25,23596,23298,-626,-125,-33,4,8966,8598,-7616,-20,34,-7
32767,32767,2218,-108,-43,21,23660,23046,-484,-106,-40,-6,8902,8610,-7616,-29,36,-5
32767,32767,2206,-150,-50,25,23886,22886,-496,-60,-40,-9,8900,8650,-7596,-49,39,-10
32767,32554,2136,-168,-46,26,23878,23004,-478,-10,-33,-8,8958,8624,-7548,-65,43,-15
32767,32216,2172,-133,-43,29,23746,23326,-488,18,-27,-1,8992,8530,-7478,-68,48,-13
32767,32154,2068,-75,-39,26,23734,23622,-510,10,-33,12,8990,8422,-7500,-66,51,-11
32767,32480,2094,-35,-38,21,23754,23700,-400,-28,-34,7,8856,8408,-7424,-62,45,-10
32767,32767,2106,-41,-40,21,23708,23574,-606,-76,-34,-1,8912,8292,-7424,-47,34,-11
32767,32767,2208,-67,-45,23,23642,23354,-524,-93,-38,-1,8884,8306,-7634,-22,27,-11
32767,32767,2292,-116,-51,23,23802,23124,-534,-86,-47,-3,8922,8410,-7594,-1,26,-5
32767,32650,2278,-125,-47,23,23844,23076,-526,-48,-44,-4,8964,8514,-7670,0,28,-3
32767,32524,2260,-99,-34,24,23786,23182,-578,-15,-38,1,8992,8572,-7608,-14,29,-7
32767,32558,2290,-68,-25,23,23710,23382,-574,5,-34,3,8980,8616,-7606,-34,33,-7
32767,32720,2248,-72,-29,21,23696,23516,-524,-8,-35,0,8968,8586,-7560,-50,40,-6
32767,32714,2144,-98,-37,18,23764,23530,-528,-36,-35,-10,8910,8504,-7502,-57,40,-8
32767,32664,2044,-99,-42,17,23758,23418,-544,-52,-34,-11,8886,8414,-7532,-54,35,-12
32767,32566,2088,-90,-45,20,23770,23324,-524,-66,-36,-10,8918,8384,-7614,-45,33,-13
32767,32600,2150,-80,-46,18,23802,23354,-416,-53,-44,-6,8916,8396,-7696,-45,35,-13
32767,32566,2170,-63,-39,20,23758,23380,-436,-46,-49,0,8950,8322,-7690,-49,36,-11
32767,32616,2250,-57,-38,19,23764,23384,-420,-40,-53,3,8970,8370,-7502,-44,29,-11
32767,32767,2330,-57,-42,19,23776,23264,-562,-26,-50,2,8976,8372,-7580,-31,26,-10
32767,32767,2418,-96,-46,15,23780,23256,-580,-25,-44,-4,8936,8446,-7500,-24,35,0
32767,32764,2322,-124,-40,13,23684,23264,-700,-25,-38,-6,8832,8450,-7612,-23,31,3
32767,32628,2292,-106,-35,13,23688,23318,-610,-29,-36,-9,8858,8438,-7616,-21,19,5
32767,32602,2190,-90,-30,13,23684,23364,-538,-36,-40,-11,8958,8358,-7618,-21,20,0
32767,32596,2062,-90,-31,12,23742,23412,-466,-48,-41,-11,8992,8372,-7528,-25,26,-7
32767,32568,1978,-94,-41,9,23774,23396,-476,-47,-36,-10,8958,8324,-7588,-33,33,-14
32767,32530,2040,-100,-43,10,23730,23308,-504,-43,-36,-8,8868,8326,-7608,-42,38,-15
32767,32494,2192,-79,-47,13,23784,23352,-502,-32,-40,-7,8836,8404,-7564,-48,34,-13
32767,32767,2286,-59,-44,15,23762,23370,-564,-26,-46,-6,8878,8444,-7528,-43,22,-4
32767,32767,2226,-80,-46,16,23738,23346,-556,-26,-54,-7,8900,8434,-7624,-42,15,4
32767,32767,2272,-99,-50,20,23776,23358,-566,-31,-53,-8,8986,8334,-7672,-40,18,5
32767,32642,2196,-107,-49,15,23790,23248,-640,-30,-49,-3,9018,8268,-7642,-36,31,2
32767,32544,2296,-95,-42,7,23748,23274,-650,-23,-43,-4,8926,8324,-7538,-30,38,-2
32767,32674,2210,-78,-38,3,23772,23250,-648,-16,-36,-10,8850,8308,-7572,-29,38,-4
32767,32716,2160,-74,-39,5,23752,23308,-658,-15,-31,-16,8844,8264,-7472,-28,24,-3
32767,32750,2116,-86,-47,10,23684,23360,-616,-13,-26,-17,8914,8330,-7610,-11,12,-2
32767,32606,1948,-104,-56,9,23698,23332,-472,-6,-29,-10,8994,8388,-7598,2,19,-3
32767,32416,1950,-109,-63,9,23686,23446,-378,-4,-29,0,8890,8412,-7604,3,33,-6
32767,32386,1978,-88,-68,6,23778,23384,-398,-6,-32,12,8754,8402,-7564,-4,27,-9
32767,32472,2134,-63,-73,5,23750,23334,-472,-5,-29,10,8778,8326,-7444,-15,8,-10
32767,32767,2316,-55,-79,2,23674,23344,-482,-11,-31,7,8900,8238,-7576,-18,-8,-13
32767,32767,2326,-87,-84,5,23570,23292,-550,-25,-36,3,9002,8260,-7510,-10,-3,-12
32767,32767,2370,-101,-77,5,23706,23266,-616,-19,-36,4,8970,8324,-7620,9,3,-5
32767,32662,2442,-114,-74,4,23632,23102,-512,-3,-41,4,8934,8396,-7474,11,12,-1
32767,32614,2372,-142,-77,0,23666,23106,-544,20,-44,1,8932,8390,-7534,-14,18,-14
32767,32452,2268,-158,-71,1,23730,23232,-526,31,-43,2,8898,8302,-7548,-26,14,-23
32767,32158,2314,-137,-70,0,23782,23402,-578,41,-38,6,8958,8284,-7548,-24,5,-22
32767,32342,2272,-102,-73,1,23790,23396,-626,29,-28,4,8924,8236,-7552,-19,11,-20
32767,32434,2310,-94,-73,5,23746,23350,-674,12,-18,-3,8882,8164,-7500,-14,15,-23
32767,32482,2250,-93,-73,2,23854,23272,-774,21,-13,-9,8848,8210,-7510,-5,3,-30
32767,32532,2336,-96,-83,1,23802,23316,-766,47,-4,-7,8896,8210,-7566,10,-6,-36
32767,32516,2298,-116,-95,2,23668,23366,-708,58,-7,-5,8980,8286,-7532,26,-10,-38
32767,32362,2220,-113,-108,4,23546,23584,-562,57,-23,-7,9046,8388,-7616,19,-7,-31
32767,32336,2070,-102,-129,2,23418,23746,-602,38,-44,-11,8982,8324,-7660,7,4,-21
32767,32318,2126,-89,-133,3,23586,23734,-408,18,-65,-2,9038,8234,-7670,1,16,-22
32767,32370,2230,-45,-134,7,23696,23644,-336,-4,-76,9,8984,8236,-7630,-2,35,-29
32767,32424,2462,-17,-122,8,23734,23522,-430,5,-76,12,8864,8196,-7560,-16,47,-34
32767,32660,2674,-9,-83,10,23796,23478,-560,7,-78,11,8702,8154,-7486,-22,42,-31
32767,32762,2826,-27,-63,-5,23838,23558,-532,4,-73,4,8640,8184,-7368,-11,24,-23
32767,32720,2782,-46,-43,-11,23954,23520,-524,-12,-67,-13,8682,8272,-7368,13,6,-11
32767,32688,2622,-45,-28,-8,24056,23464,-520,-19,-53,-23,8796,8304,-7390,24,-6,-1
32767,32744,2540,-53,-27,-6,23926,23288,-562,1,-46,-24,9048,8322,-7370,26,-10,0
32767,32660,2378,-101,-34,-11,23672,23118,-396,42,-46,-59,9036,8432,-7476,22,-5,1
32767,32304,2394,-135,-42,-19,23714,23478,-608,115,-53,-35,8994,8518,-7480,11,-1,10
32767,32040,2476,-107,-48,-21,23658,23822,-530,126,-62,-17,8886,8490,-7474,1,-2,23
32767,31770,2536,-57,-59,-39,23486,23888,-736,94,-73,-16,8862,8344,-7392,-9,2,34
32767,32188,2434,2,-48,-35,23340,23718,-664,32,-83,-37,8764,8166,-7380,-22,-6,26
32767,32558,2380,28,-34,-24,23598,23484,-662,-43,-91,-68,8846,8044,-7438,-16,-22,15
32767,32767,2604,42,-32,-41,23858,23210,-914,-55,-75,-73,8876,8050,-7546,16,-19,17
32767,32767,2666,-11,-29,-55,23636,22948,-744,-60,-45,-74,8792,8150,-7490,37,12,21
32767,32532,2820,-91,-25,-98,23394,22938,-716,-11,-48,-74,8704,8126,-7372,10,11,12
32767,31778,2402,-127,-41,-118,23548,23254,-762,41,-58,-68,8742,8076,-7252,-16,-13,-5
32767,31332,2240,-74,-30,-80,23606,23472,-766,44,-57,-61,8898,8054,-7336,-10,-23,-11
32767,32108,2130,-22,-4,-91,23628,23608,-772,32,-60,-65,8912,8042,-7460,14,-17,-14
32767,32340,2210,-17,-24,-73,23732,23660,-836,-5,-61,-83,8870,8084,-7518,18,-11,-21
32767,32630,2224,-62,-36,-76,23636,23536,-848,-32,-48,-94,8882,8086,-7624,-5,-3,-38
32767,32394,2266,-100,-40,-80,23530,23406,-758,-52,-45,-99,8864,8086,-7552,-16,0,-45
32767,32056,2282,-97,-33,-77,23556,23346,-860,-26,-60,-90,8878,8206,-7508,1,0,-40
32767,32008,2202,-73,-34,-76,23710,23300,-784,16,-59,-82,8864,8266,-7544,3,0,-32
32767,32146,2268,-60,-39,-64,23718,23384,-750,38,-56,-79,8886,8186,-7610,-9,0,-32
32767,32326,2294,-69,-32,-94,23738,23422,-806,41,-56,-94,8998,8086,-7622,-13,0,-40
32767,32166,2242,-40,-45,-65,23532,23556,-832,24,-42,-100,8958,8028,-7550,0,10,-40
32767,32352,2432,-37,-45,-50,23408,23576,-748,16,-42,-86,8894,8040,-7516,21,19,-35
32767,32480,2306,-46,-36,-95,23518,23486,-688,23,-66,-63,8828,8154,-7472,39,19,-30
32767,32416,2262,-47,-41,-117,23984,23560,-614,12,-69,-63,8740,8154,-7428,42,10,-26
32767,32362,2212,-34,-48,-82,23992,23600,-746,30,-62,-49,8942,8072,-7476,26,-4,-35
32767,32604,2364,-33,-40,-88,23772,23794,-766,-1,-57,-43,9064,7940,-7522,27,12,-41
32767,32384,2600,29,-39,-95,23820,23846,-738,21,-56,-3,9042,8134,-7468,30,27,-44
32767,32762,2442,46,-47,-28,23550,23606,-778,10,-62,2,8986,8344,-7418,30,26,-30
32767,32767,2428,5,-40,-57,23730,23440,-544,-17,-78,-46,9032,8424,-7384,28,14,-19
32767,32767,2412,-47,-43,-37,24016,23422,-806,-10,-78,-53,9058,8522,-7488,19,17,-12
32767,32767,2546,-31,-32,-13,23834,23320,-684,-24,-42,-13,8934,8524,-7560,-4,41,-7
32767,32754,2448,-12,-43,-19,23516,23262,-658,-13,-35,-4,8942,8416,-7520,-21,51,0
32767,32542,2370,-64,-38,-68,23544,23400,-646,7,-43,-8,9062,8152,-7372,-55,54,-7
32767,31970,2242,-15,-38,-24,23696,23490,-688,-17,-36,-10,8892,7964,-7302,-83,67,-20
32767,32454,2382,51,-44,-11,23456,23330,-668,-4,-41,-16,8730,7866,-7304,-79,58,-17
32767,32767,2222,-3,-54,-20,23514,23140,-628,2,-53,-23,8816,7834,-7418,-45,39,-2
32767,32740,2264,-72,-67,-20,23724,23144,-620,22,-66,-26,8880,7886,-7546,-20,33,7
32767,32230,2252,-95,-74,-21,23880,23340,-646,43,-49,-18,8910,8000,-7614,-7,45,7
32767,31876,2378,-48,-70,-21,23602,23650,-762,48,-32,4,8888,8060,-7608,-1,47,3
32767,31894,2470,-3,-58,-35,23418,23594,-674,40,-41,5,8850,8156,-7480,-3,44,0
32767,32260,2462,31,-52,-36,23622,23576,-548,-4,-64,-19,8766,8026,-7388,-17,43,2
32767,32766,2316,16,-55,-19,23846,23456,-750,-32,-45,-24,8696,7900,-7428,-15,34,2
32767,32767,2366,-18,-57,-2,23582,23248,-778,-42,-35,-15,8832,7854,-7532,26,18,5
32767,32516,2472,-48,-59,-7,23464,23212,-650,-13,-47,-9,9020,8078,-7638,65,10,2
32767,32156,2480,-64,-57,-13,23620,23260,-736,31,-62,-7,8990,8260,-7492,47,26,1
32767,32142,2518,-25,-53,-12,23662,23240,-772,73,-66,-7,8872,8328,-7498,0,43,4
32767,32444,2496,-21,-52,-15,23740,23326,-824,98,-66,-15,8820,8192,-7484,-32,43,3
32767,32574,2482,-48,-50,-20,23816,23608,-728,85,-50,-18,8882,8092,-7600,-42,33,-1
32767,32312,2492,-53,-53,-14,23666,23848,-764,25,-27,-14,8932,7946,-7670,-31,40,1
32767,31958,2536,-27,-44,-21,23362,23696,-758,-42,-28,-9,8838,7900,-7548,-7,56,3
32767,32020,2352,22,-46,-25,23428,23296,-584,-49,-59,-24,8740,7920,-7338,-4,54,-1
32767,32442,2344,34,-45,-37,23814,23052,-612,-5,-76,-40,8674,7906,-7412,-3,36,-1
32767,32767,2284,-1,-65,-31,23872,23112,-632,46,-63,-20,8788,7810,-7454,10,18,-4
32767,32626,2510,-42,-64,-32,23724,23262,-686,80,-60,-14,8896,7822,-7674,46,21,-3
32767,32206,2676,-76,-61,-38,23638,23692,-742,93,-52,-10,9022,8120,-7730,80,36,3
32767,31792,2602,-38,-54,-14,23698,23876,-656,42,-49,-2,8916,8284,-7644,64,50,7
32767,32010,2564,49,-28,-28,23802,23806,-568,-36,-47,-21,8766,8282,-7416,26,44,-3
32767,32767,2478,60,-39,-27,23652,23500,-594,-58,-38,-23,8810,8094,-7398,-2,21,-6
32767,32767,2462,-22,-42,-35,23700,23442,-680,-42,-40,-16,8858,8040,-7448,-6,23,-5
32767,32592,2458,-68,-53,-28,23582,23462,-710,4,-39,0,8822,8070,-7482,3,24,-6
32767,32488,2500,-62,-59,-20,23640,23592,-800,19,-49,11,8848,8198,-7600,13,28,0
32767,32330,2662,-36,-49,-4,23752,23706,-770,44,-58,14,8778,8270,-7490,12,23,9
32767,32534,2656,-27,-44,-6,23718,23740,-930,40,-55,11,8812,8258,-7522,-8,18,10
32767,32767,2630,-26,-40,2,23734,23718,-998,32,-50,11,8942,8220,-7510,-25,23,9
32767,32767,2632,-57,-34,-3,23820,23702,-960,21,-42,10,8978,8130,-7618,-27,30,7
32767,32708,2630,-87,-40,-5,23638,23700,-1004,29,-33,20,8920,8088,-7788,-18,39,12
32767,32522,2576,-98,-37,-11,23744,23724,-844,32,-39,25,8882,8000,-7740,-9,44,20
32767,32434,2422,-64,-25,-16,23856,23722,-904,36,-31,31,8862,8062,-7584,6,45,21
32767,32356,2376,-16,-20,-25,23676,23738,-778,30,-18,44,8934,8144,-7652,18,40,24
32767,32714,2162,0,-36,-21,23528,23702,-778,30,-32,39,9068,8086,-7712,27,48,28
32767,32636,2252,-14,-45,-18,23518,23700,-844,48,-45,27,8980,8080,-7824,27,65,25
32767,32708,2362,-40,-59,-37,23612,23718,-784,52,-55,34,8848,8116,-7752,20,76,18
32767,32632,2388,-38,-69,-32,23810,23718,-774,55,-44,37,8738,8150,-7664,12,75,16
32767,32714,2456,-15,-66,-29,23782,23724,-838,49,-29,38,8748,8146,-7626,15,60,19
32767,32676,2498,-13,-78,-24,23724,23824,-774,42,-24,37,8922,8184,-7780,28,65,29
32767,32568,2474,-41,-73,-31,23570,23866,-732,13,-25,34,8850,8132,-7730,25,84,25
32767,32310,2668,-49,-63,-38,23604,23820,-738,-5,-23,30,8778,8128,-7662,19,93,13
32767,32356,2544,-8,-56,-42,23612,23670,-764,-19,-29,32,8732,8206,-7666,20,80,12
32767,32498,2390,17,-59,-42,23616,23452,-704,15,-34,25,8778,8170,-7678,18,62,17
32767,32766,2462,13,-51,-24,23576,23480,-836,43,-46,24,8896,8182,-7674,20,60,22
32767,32767,2538,-32,-64,-33,23644,23650,-750,64,-43,29,8872,8168,-7770,13,67,18
32767,32612,2536,-70,-73,-22,23748,23860,-834,81,-38,44,8834,8164,-7748,4,71,5
32767,32426,2586,-67,-64,-23,23664,23934,-876,53,-25,53,8784,8232,-7824,-2,68,3
32767,32212,2548,-47,-59,-1,23596,24050,-894,50,-29,56,8800,8232,-7780,-10,65,8
32767,32124,2678,-18,-44,-2,23632,24106,-874,50,-38,50,8764,8186,-7764,-17,66,7
32767,32356,2628,16,-41,-4,23674,24176,-870,15,-38,50,8738,8060,-7682,-28,61,-6
32767,32632,2464,19,-35,9,23800,24134,-860,-19,-35,63,8684,8032,-7660,-21,50,-15
32767,32688,2576,-9,-43,9,23864,24082,-910,-54,-30,63,8712,8012,-7762,20,32,-15
32767,32612,2578,-13,-42,21,23848,24058,-852,-83,-27,57,8774,8016,-7872,61,31,-9
32767,32674,2616,-1,-37,24,23754,24054,-836,-103,-15,61,8824,8080,-7826,78,44,1
32767,32767,2588,-7,-29,27,23750,23908,-964,-94,-19,65,8852,8158,-7820,58,56,-5
32767,32767,2622,-10,-17,35,23664,23946,-856,-75,-26,62,8902,8204,-7742,39,49,-11
32767,32767,2698,-15,-13,44,23832,24128,-942,-40,-29,72,8812,8370,-7898,28,42,-11
32767,32767,2634,-53,-23,55,23748,24284,-842,-55,-31,88,8776,8486,-7826,-3,46,-7
32767,32767,2564,-122,-32,67,23774,24354,-798,-94,-28,63,8804,8464,-7846,-58,51,-9
32767,32638,2474,-166,-35,95,23916,24344,-942,-118,-24,68,8810,8278,-8006,-96,51,-13
32767,32418,2646,-130,-31,96,23884,24122,-930,-147,-20,84,8914,8198,-8040,-105,57,-15
32767,32767,2506,-77,-11,124,23818,23994,-742,-143,-20,76,8836,8170,-8046,-103,63,-16
32767,32767,2634,-62,-10,96,23846,24046,-894,-106,-22,94,8784,8164,-7842,-101,72,-10
32767,32767,2696,-76,-32,87,23666,24076,-750,-90,-35,102,8686,8070,-7836,-98,63,-11
32767,32767,2530,-122,-25,115,23932,24184,-782,-67,-47,84,8722,8052,-7734,-86,47,-10
32767,32767,2486,-150,-27,108,24110,24344,-934,-61,-29,108,8810,8008,-7886,-61,33,-3
32767,32566,2460,-148,-31,131,23978,24368,-784,-91,-14,101,8852,7994,-7982,-28,27,5
32767,32767,2552,-112,-21,174,23876,24382,-1034,-91,-3,95,8808,8140,-8090,1,37,12
32767,32767,2714,-85,-23,135,23652,24282,-720,-148,-5,83,8822,8230,-8010,1,47,15
32767,32767,2614,-146,-22,124,23776,24264,-924,-128,-12,126,8794,8356,-7922,-11,51,20
32767,32767,2592,-143,-10,155,23722,24278,-698,-165,-23,125,8734,8448,-7780,-35,51,29
32767,32767,2532,-134,-22,120,23862,24320,-966,-123,-27,119,8728,8428,-7906,-58,47,33
32767,32767,2404,-109,-20,149,23882,24308,-970,-156,-26,130,8804,8342,-7936,-83,47,36
32767,32767,2318,-84,-38,121,23758,24212,-918,-136,-17,124,8972,8216,-7970,-125,52,26
32767,32767,2512,-103,-42,171,23698,24074,-942,-161,-30,110,8872,8154,-8020,-153,72,16
32767,32767,2588,-110,-15,207,23970,24084,-928,-142,-30,102,8748,8102,-8016,-164,86,10
32767,32767,2630,-133,-29,173,24024,24046,-992,-128,-14,106,8660,8106,-7980,-161,78,17
32767,32767,2536,-186,-8,183,23724,23922,-758,-163,-1,85,8744,8164,-8020,-160,67,23
32767,32708,2532,-165,-17,218,23628,23840,-826,-147,-4,65,8810,8010,-8086,-145,70,25
32767,32767,2474,-176,1,237,23726,23818,-994,-121,-10,75,8816,7944,-8110,-119,78,23
32767,32767,2526,-186,-18,155,23498,23706,-624,-109,-18,67,8784,7930,-8098,-104,85,18
32767,32767,2324,-164,-16,164,23760,23952,-768,-76,-30,55,8674,8000,-8064,-90,86,18
32767,32722,2466,-135,-4,175,23920,24162,-860,-94,-18,70,8588,8056,-7954,-70,73,24
32767,32606,2350,-164,-42,125,23770,24194,-828,-123,-2,67,8690,8042,-7964,-70,56,24
32767,32342,2430,-200,-48,124,23568,24000,-772,-152,-10,49,8738,7990,-8078,-87,59,16
32767,32070,2458,-129,-48,171,23742,24056,-756,-163,-20,23,8698,7908,-8090,-86,74,10
32767,32516,2600,-115,-52,113,23874,23912,-840,-128,-22,29,8612,7886,-8022,-89,70,-7
32767,32767,2446,-144,-35,131,23690,23898,-706,-128,-19,31,8566,7952,-7948,-103,60,-17
32767,32767,2520,-144,-29,113,23650,23968,-810,-67,-45,26,8594,8030,-8086,-99,46,-19
32767,32767,2500,-177,-28,114,23808,24108,-786,-88,-46,12,8702,8050,-8048,-76,36,-14
32767,32610,2548,-212,-39,114,23850,24136,-926,-86,-42,25,8746,8068,-8146,-78,44,-14
32767,32656,2498,-208,-42,123,23856,24212,-876,-110,-34,27,8736,8052,-8168,-98,50,-19
32767,32294,2528,-155,-22,136,23794,24156,-984,-157,-11,25,8706,7926,-8284,-104,51,-23
32767,32767,2564,-131,-15,122,23538,23774,-962,-183,-9,10,8698,7848,-8162,-82,40,-24
32767,32572,2734,-127,-16,73,23692,23790,-796,-163,-25,0,8660,7940,-8232,-51,40,-21
32767,32767,2674,-142,-32,79,24080,23916,-1010,-138,-21,11,8608,7836,-8074,-54,42,-24
32767,32767,2580,-171,-15,77,23896,24004,-922,-115,-19,23,8538,7770,-8016,-67,37,-35
32767,32767,2394,-165,-13,68,23620,24050,-826,-119,-32,4,8574,7822,-8126,-58,22,-44
32767,32767,2258,-173,-12,77,23814,24106,-866,-104,-43,-6,8732,7810,-8188,-46,13,-50
32767,32767,2314,-205,-19,98,24074,24016,-704,-111,-44,-7,8846,7874,-8276,-49,25,-55
32767,32686,2300,-218,-22,129,23924,23848,-700,-126,-27,-21,8812,7826,-8266,-71,50,-63
32767,32538,2254,-209,-18,156,23588,23746,-802,-127,-34,-21,8836,7838,-8310,-97,58,-75
32767,32514,2290,-174,-8,182,23500,23714,-632,-129,-39,-13,8734,7874,-8256,-95,56,-75
32767,32767,2464,-175,-29,104,23642,23704,-756,-114,-46,-11,8718,7890,-8286,-75,54,-66
32767,32767,2456,-205,-34,84,23786,23656,-710,-107,-55,-19,8684,7880,-8250,-73,61,-68
32767,32524,2492,-198,-29,82,23938,23682,-746,-120,-48,-30,8648,7820,-8102,-81,51,-68
32767,32534,2498,-168,-42,59,23784,23632,-700,-123,-38,-40,8644,7736,-8074,-69,42,-66
32767,32544,2374,-152,-47,50,23726,23526,-656,-118,-40,-46,8606,7594,-8008,-64,31,-81
32767,32638,2478,-138,-46,52,23776,23542,-640,-57,-60,-51,8720,7526,-8012,-54,29,-105
32767,32767,2590,-147,-47,52,23908,23532,-540,-29,-60,-58,8704,7482,-8068,-51,48,-119
32767,32750,2544,-204,-42,50,23994,23570,-504,-8,-65,-70,8626,7488,-8158,-57,58,-118
32767,32404,2460,-222,-39,46,24014,23790,-470,0,-65,-95,8610,7516,-8170,-59,44,-116
32767,32344,2498,-206,-45,45,23834,23834,-614,16,-62,-97,8692,7574,-8134,-41,30,-115
32767,32092,2436,-200,-46,37,23888,23774,-392,-2,-73,-109,8770,7696,-8172,-25,33,-114
32767,32044,2424,-163,-49,33,24016,23668,-354,-16,-68,-138,8768,7630,-8236,-37,44,-108
32767,32054,2518,-110,-49,30,23920,23598,-406,-24,-58,-155,8626,7490,-8286,-58,49,-102
32767,32206,2578,-79,-41,7,23842,23346,-452,33,-64,-148,8522,7432,-8214,-44,42,-98
32767,32204,2546,-88,-49,-32,23986,23420,-300,62,-78,-172,8504,7310,-8204,-3,23,-85
32767,32190,2626,-68,-60,-24,23910,23642,-398,105,-63,-173,8550,7408,-8116,45,3,-62
32767,32368,2686,-45,-68,-69,23730,23858,-288,76,-58,-166,8542,7444,-8174,77,-13,-43
32767,32272,2580,-68,-86,-88,23706,23784,-554,97,-74,-149,8520,7490,-8138,80,-15,-44
32767,32106,2550,-112,-85,-151,23660,23798,-418,71,-95,-158,8542,7514,-8096,80,-29,-42
32767,31716,2534,-80,-80,-115,23808,23988,-580,69,-99,-145,8568,7458,-8092,94,-43,-22
32767,31708,2528,-14,-79,-156,23906,23872,-694,76,-97,-125,8584,7516,-8106,108,-48,-6
32767,32028,2656,-36,-82,-141,24076,23740,-750,38,-85,-161,8558,7600,-8090,108,-53,5
32767,32322,2688,-22,-72,-190,23946,23674,-866,36,-66,-160,8568,7546,-8028,88,-67,6
32767,32560,2936,-27,-64,-136,23790,23428,-752,28,-72,-153,8702,7520,-7948,81,-70,3
32767,32767,2790,-15,-33,-230,23830,23402,-782,93,-77,-153,8726,7542,-8102,73,-60,5
32767,32124,2800,0,-30,-159,23754,23614,-744,120,-85,-140,8592,7612,-8134,53,-49,7
32767,32242,2812,10,-31,-96,23594,23858,-590,101,-80,-122,8578,7654,-8044,42,-56,12
32767,32767,2504,-27,-16,-177,23674,23924,-790,91,-83,-108,8786,7698,-7916,38,-78,21
32767,32767,2490,-78,-17,-158,23514,23754,-800,47,-80,-108,8976,7700,-8040,41,-75,31
32767,32362,2482,-66,-22,-188,23634,23692,-784,45,-87,-95,8976,7576,-8024,33,-49,34
32767,32142,2496,0,-31,-157,23866,23464,-792,56,-94,-77,8842,7458,-8116,23,-24,34
32767,32478,2450,38,-42,-165,23852,23398,-828,72,-89,-87,8648,7384,-7992,21,-26,35
32767,32764,2528,49,-55,-179,23618,23608,-880,84,-80,-88,8674,7330,-7906,28,-34,30
32767,32767,2602,1,-62,-134,23726,23712,-762,96,-101,-65,8600,7316,-7896,45,-34,15
32767,32767,2426,-44,-60,-178,23770,23640,-774,70,-90,-73,8634,7388,-7912,63,-32,12
32767,32502,2410,-62,-44,-177,23622,23552,-660,53,-90,-88,8764,7484,-7996,81,-34,17
32767,32188,2534,8,-38,-90,23796,23650,-658,38,-64,-70,8810,7608,-7964,82,-23,20
32767,32462,2414,74,-22,-125,23576,23658,-574,2,-24,-44,8844,7642,-8052,71,-18,19
32767,32438,2410,68,-10,-85,23282,23784,-828,28,-29,-35,8854,7684,-8046,63,-11,13
32767,32748,2516,2,-30,-87,23422,24032,-782,25,-56,-8,8840,7688,-7956,38,2,6
32767,32656,2520,-8,-40,-145,23792,23936,-818,34,-66,7,8676,7658,-7914,11,20,7
32767,32404,2440,-24,-44,-181,23824,23710,-922,24,-73,-13,8540,7498,-7742,-12,24,7
32767,31668,2352,22,-51,-113,23830,23610,-858,-3,-76,-39,8402,7404,-7662,-14,8,2
32767,32310,2312,71,-48,-47,23942,23568,-980,-17,-59,-28,8386,7302,-7794,-9,-4,-4
32767,32767,2230,26,-47,-115,23664,23440,-826,-6,-37,-6,8578,7290,-8040,13,-20,-11
32767,32767,2396,-46,-45,-54,23686,23628,-696,-1,-40,-5,8776,7478,-8142,38,-12,-16
32767,32646,2584,-40,-47,32,23680,23722,-792,15,-41,-2,8934,7782,-8214,40,20,-14
32767,32628,2704,-49,-19,-2,23622,23632,-700,16,-46,-9,8922,7992,-8164,18,47,2
32767,32084,2548,-65,-4,-35,23648,23574,-740,18,-55,-16,8868,7940,-7956,-24,55,10
32767,31984,2388,1,-1,-45,23762,23514,-716,21,-48,-7,8704,7590,-7708,-89,58,-8
32767,32554,2278,90,-6,-33,23710,23532,-588,9,-39,-2,8678,7228,-7824,-84,45,-21
32767,32767,2286,30,-28,-17,23734,23548,-622,-2,-36,-3,8726,7112,-8006,-34,37,-17
32767,32767,2402,-67,-52,-9,23592,23658,-614,27,-40,-2,8746,7264,-8094,11,48,-3
32767,32236,2420,-90,-62,-4,23632,23830,-758,81,-37,-5,8698,7472,-8146,41,62,3
32767,32006,2480,-54,-60,-19,23792,23898,-940,73,-22,11,8696,7644,-7914,55,60,-1
32767,32178,2540,18,-50,-39,23782,23884,-822,44,-10,14,8644,7704,-7894,36,55,-10
32767,32704,2480,26,-55,-30,23728,23780,-804,-12,-9,-7,8676,7606,-7802,-5,56,-17
32767,32594,2524,-15,-57,-20,23638,23542,-864,-19,-15,-26,8640,7506,-7930,-24,56,-18
32767,32376,2442,-25,-61,-3,23518,23310,-758,-5,-28,-22,8450,7444,-8172,6,64,-10
32767,32300,2608,-17,-51,-16,23606,23218,-776,60,-41,-9,8404,7554,-8132,37,70,-1
32767,32250,2550,-17,-46,-35,23750,23436,-716,101,-46,-1,8504,7618,-8096,31,57,0
32767,32414,2450,-4,-34,-58,23728,23788,-760,113,-34,15,8696,7620,-8022,9,47,-10
32767,32767,2432,40,-40,-70,23562,24140,-828,89,-35,16,8874,7536,-8010,-8,51,-11
32767,32767,2514,-42,-58,-61,23610,24112,-792,20,-33,10,8886,7522,-8072,-10,68,-6
32767,32410,2478,-108,-67,-32,23726,23810,-804,-16,-39,6,8764,7518,-8146,-11,84,4
32767,31594,2568,-85,-58,-28,23712,23592,-818,-9,-37,-4,8578,7358,-8110,-20,85,7
32767,31648,2518,36,-48,-27,23662,23686,-806,23,-36,4,8538,7252,-8048,-15,68,-4
32767,32352,2618,128,-35,-30,23742,23752,-920,47,-33,15,8578,7178,-8072,10,53,-7
32767,32767,2624,113,-41,-22,23658,23990,-900,56,-28,18,8652,7294,-8036,44,44,-3
32767,32767,2640,16,-46,-19,23706,24062,-908,36,-32,22,8660,7436,-8040,73,44,-1
32767,32767,2594,-90,-57,-24,23846,24054,-866,-7,-33,22,8704,7556,-8118,72,49,-4
32767,32122,2650,-82,-48,-20,23828,23950,-834,-37,-26,22,8640,7676,-8178,51,55,-6
32767,32130,2576,-16,-42,-21,23786,23632,-898,-23,-28,20,8618,7742,-8202,31,58,0
32767,32404,2556,25,-33,-22,23614,23580,-916,12,-35,13,8602,7718,-8134,6,67,4
32767,32724,2540,32,-32,-19,23612,23626,-882,52,-40,22,8564,7644,-8122,-17,66,-1
32767,32767,2534,19,-32,-8,23698,23828,-916,69,-36,43,8662,7484,-8106,-31,60,-2
32767,32767,2592,-31,-32,1,23678,24070,-890,69,-35,57,8794,7362,-8186,-26,58,-5
32767,32692,2674,-74,-37,-6,23690,24200,-954,46,-36,60,8792,7494,-8198,-17,64,-10
32767,32536,2622,-74,-39,-19,23802,24256,-850,-2,-29,60,8674,7530,-8228,-17,71,-7
32767,32552,2560,-39,-34,-11,23736,24138,-968,-43,-14,64,8626,7598,-8310,-14,68,7
32767,32430,2618,-5,-36,0,23548,24014,-864,-51,-22,73,8678,7560,-8328,-9,67,20
32767,32496,2662,4,-33,0,23804,24044,-848,-33,-32,84,8582,7436,-8292,-8,73,20
32767,32530,2534,17,-30,6,23846,24118,-774,-38,-31,84,8488,7262,-8128,-13,62,-2
32767,32767,2526,44,-29,15,23790,24362,-922,-39,-21,96,8632,7168,-8168,4,47,-2
32767,32767,2690,18,-28,26,23750,24368,-1072,-55,-23,111,8644,7338,-8288,33,48,9
32767,32767,2558,-40,-33,34,23742,24342,-798,-98,-36,90,8590,7488,-8262,52,53,18
32767,32767,2624,-92,-32,52,23840,24360,-916,-109,-37,83,8538,7630,-8254,41,54,19
32767,32700,2556,-69,-34,58,23970,24284,-904,-107,-26,119,8550,7592,-8284,8,46,8
32767,32767,2580,-15,-13,103,23834,24176,-954,-83,-25,135,8664,7566,-8354,-13,46,1
32767,32767,2680,-8,-16,118,23824,24376,-934,-69,-29,131,8690,7608,-8306,-25,57,4
32767,32767,2606,-51,-19,107,23956,24354,-960,-97,-26,134,8642,7640,-8344,-50,71,1
32767,32767,2608,-81,-8,153,24102,24370,-980,-104,-16,133,8610,7660,-8302,-63,67,1
32767,32767,2628,-121,-15,142,23964,24320,-1050,-125,7,127,8678,7620,-8384,-71,63,7
32767,32767,2572,-159,-21,124,23688,24242,-962,-132,6,128,8680,7600,-8338,-86,74,12
32767,32767,2540,-106,-4,148,23592,24142,-898,-127,-12,120,8652,7554,-8318,-93,72,14
32767,32767,2390,-42,3,201,23734,24066,-836,-142,-26,112,8612,7468,-8410,-77,67,17
32767,32767,2556,-70,-2,192,23926,23938,-890,-127,-14,123,8662,7472,-8416,-54,68,20
32767,32767,2610,-133,0,156,23810,23952,-902,-91,-7,129,8692,7562,-8462,-53,74,26
32767,32767,2478,-135,-9,185,23696,23936,-876,-75,-11,114,8610,7634,-8392,-69,76,31
32767,32767,2326,-101,-13,185,23726,24072,-716,-96,-25,84,8580,7626,-8526,-75,73,35
32767,32767,2478,-94,-15,209,23946,24250,-762,-104,-16,78,8630,7574,-8474,-86,71,38
32767,32767,2482,-109,-38,193,23858,24202,-704,-125,4,94,8716,7516,-8486,-98,83,32
32767,32767,2548,-140,-39,154,23542,24060,-672,-147,1,79,8616,7526,-8400,-117,101,22
32767,32614,2600,-140,-38,174,23640,23968,-712,-157,-26,45,8450,7450,-8308,-134,103,15
32767,32767,2454,-89,-17,197,23954,23904,-662,-142,-20,50,8416,7440,-8428,-126,80,22
32767,32767,2370,-85,-26,178,23840,23766,-738,-119,-3,57,8534,7384,-8486,-96,64,31
32767,32592,2638,-120,-35,158,23548,23808,-794,-90,-13,54,8582,7380,-8410,-83,66,20
32767,32690,2518,-127,-43,208,23672,24058,-842,-62,-33,49,8444,7416,-8360,-93,69,12
32767,32652,2612,-100,-17,203,23890,24320,-976,-40,-34,50,8364,7438,-8374,-87,48,13
32767,32767,2736,-105,-39,155,23734,24466,-1016,-41,-31,50,8394,7438,-8514,-68,28,17
32767,32767,2876,-193,-43,128,23592,24506,-1074,-87,-41,38,8408,7438,-8318,-65,27,13
32767,32708,2872,-222,-36,100,23542,24454,-1006,-156,-42,5,8430,7424,-8274,-81,24,4
32767,32688,2630,-169,-27,107,23580,24290,-1076,-185,-40,7,8424,7368,-8358,-70,3,4
32767,32767,2530,-152,-9,151,23592,23966,-996,-231,-42,23,8550,7358,-8488,-56,-10,-1
32767,32767,2546,-131,6,212,23806,23828,-1054,-226,-32,34,8636,7420,-8612,-53,0,-14
32767,32658,2482,-77,20,245,23856,23848,-1184,-214,-22,43,8648,7576,-8686,-53,15,-18
32767,32767,2566,-40,21,226,23938,23828,-1082,-179,-19,49,8574,7674,-8754,-55,27,-17
32767,32767,2572,-81,16,170,24114,24032,-898,-123,-15,4,8394,7612,-8660,-81,42,-24
32767,32767,2436,-154,2,129,24036,24150,-630,-127,-10,-13,8350,7308,-8420,-121,43,-43
32767,32767,2266,-223,12,161,23898,24038,-588,-145,-9,-24,8590,7076,-8372,-121,29,-72
32767,32767,2318,-220,18,167,23828,23896,-626,-102,-19,-23,8784,7012,-8346,-106,36,-90
32767,32767,2260,-265,14,156,23848,23808,-584,-54,-41,-19,8680,7002,-8340,-108,70,-97
32767,32767,2130,-254,17,167,23898,23932,-540,-13,-38,-13,8548,7072,-8544,-108,74,-100
32767,32767,1986,-239,21,183,23898,24184,-644,-6,-34,-6,8648,7300,-8690,-70,56,-89
32767,32767,2174,-233,0,160,23616,24252,-716,-40,-40,-17,8710,7466,-8742,-41,64,-80
32767,32767,2212,-268,-29,120,23646,24098,-718,-85,-57,-28,8678,7590,-8644,-42,74,-76
32767,32468,2204,-282,-62,99,23786,23908,-730,-92,-58,-35,8590,7470,-8538,-58,77,-74
32767,32540,2336,-277,-88,67,23876,23740,-810,-90,-54,-40,8446,7372,-8518,-67,71,-72
32767,32486,2452,-228,-86,51,23904,23744,-824,-80,-43,-36,8384,7148,-8566,-61,60,-59
32767,32466,2670,-99,-67,45,23852,23786,-824,-48,-39,-36,8332,7090,-8548,-43,50,-50
32767,32767,2706,-29,-52,36,23818,23890,-782,-50,-43,-45,8332,7028,-8458,-20,42,-49
32767,32767,2726,-48,-47,32,23638,24010,-896,-48,-31,-42,8368,7044,-8538,-5,5,-54
32767,32767,2788,-117,-44,29,23642,23994,-714,-61,-47,-46,8596,7158,-8600,9,0,-53
32767,32767,2778,-162,-37,25,23904,23920,-796,-71,-49,-63,8600,7274,-8580,-6,18,-56
32767,32462,2724,-125,-28,19,23982,23870,-726,-65,-49,-67,8514,7278,-8540,-48,37,-66
32767,32767,2556,-74,-18,18,23744,23764,-822,-30,-48,-65,8428,7070,-8534,-92,31,-70
32767,32767,2364,-83,-10,23,23670,23686,-746,8,-61,-67,8528,6984,-8554,-95,18,-64
32767,32767,2408,-116,-18,23,23794,23680,-828,28,-81,-83,8550,6924,-8584,-70,15,-58
32767,32724,2402,-127,-32,20,23926,23792,-540,13,-72,-106,8524,6902,-8616,-52,19,-66
32767,32767,2336,-98,-43,14,23758,23864,-670,11,-51,-75,8510,6880,-8626,-50,21,-67
32767,32767,2446,-111,-44,1,23814,23786,-652,14,-60,-79,8556,6910,-8646,-54,26,-62
32767,32674,2398,-121,-50,-7,23808,23966,-570,22,-60,-99,8510,6906,-8576,-50,27,-58
32767,32670,2572,-101,-45,-12,23714,23872,-728,18,-58,-93,8448,6866,-8692,-26,21,-47
32767,32736,2512,-58,-44,-4,23758,23790,-502,-5,-74,-109,8492,6844,-8692,13,13,-33
32767,32767,2588,-39,-41,-31,24042,23986,-688,36,-72,-99,8546,6846,-8732,41,9,-30
32767,32648,2504,-75,-51,-74,23808,23870,-724,14,-67,-77,8570,6850,-8556,43,11,-35
32767,32608,2370,-98,-52,-113,23844,23816,-530,-7,-71,-116,8398,6894,-8426,22,12,-42
32767,32438,2320,12,-68,-48,23662,23734,-656,-15,-64,-133,8322,6742,-8456,21,-7,-30
32767,32767,2454,-4,-53,-68,23748,23464,-702,9,-87,-126,8408,6868,-8490,53,-25,-15
32767,32767,2448,-48,-49,-108,23874,23280,-658,54,-89,-146,8518,6960,-8600,79,-25,-10
32767,32767,2546,-45,-62,-46,23982,23452,-766,90,-89,-148,8556,7098,-8530,64,-13,-14
32767,32767,2564,-91,-43,-125,23780,23692,-582,111,-68,-124,8598,7104,-8502,27,-11,-25
32767,32568,2644,-73,-48,-85,23614,23668,-738,113,-73,-127,8494,7136,-8550,3,-7,-17
32767,32767,2622,22,-57,-72,23520,23870,-690,92,-75,-156,8456,7062,-8464,-13,-14,0
32767,32767,2574,-49,-61,-108,23600,23970,-790,86,-83,-148,8534,6924,-8588,-14,-27,2
32767,32598,2574,-100,-55,-182,23580,23520,-724,65,-95,-141,8614,6754,-8480,-2,-26,0
32767,32114,2596,-89,-53,-90,23736,23646,-714,62,-94,-154,8564,6762,-8522,26,-20,6
32767,31868,2446,-22,-46,-164,23820,23822,-872,76,-70,-127,8542,6754,-8344,43,-22,16
32767,32348,2484,11,-42,-142,23504,23752,-992,75,-72,-98,8476,6794,-8318,56,-27,19
32767,32668,2452,95,-50,-197,23604,23844,-858,76,-96,-119,8396,6812,-8372,74,-52,14
32767,32767,2462,71,-66,-160,23858,24026,-870,72,-86,-119,8526,6836,-8408,101,-55,14
32767,32767,2382,-52,-68,-235,23764,23850,-910,3,-61,-105,8558,6878,-8524,115,-46,15
32767,32388,2558,-61,-76,-201,23442,23756,-886,-19,-47,-119,8452,6968,-8550,105,-35,14
32767,32240,2686,-2,-74,-188,23412,23774,-1056,7,-55,-101,8464,7004,-8360,72,-31,7
32767,32686,2582,30,-41,-204,23480,23688,-898,35,-65,-72,8450,6968,-8252,37,-42,-4
32767,32767,2506,70,-34,-187,23660,23634,-1030,53,-70,-59,8578,6948,-8350,25,-51,-3
32767,32767,2560,46,-36,-150,23826,23900,-1188,88,-70,-48,8692,6856,-8416,33,-44,1
32767,32767,2570,-48,-32,-189,23726,24082,-1030,57,-51,-40,8652,7032,-8454,43,-22,-5
32767,32436,2608,-66,-43,-186,23604,24048,-994,15,-54,-42,8472,7052,-8422,17,-3,-10
32767,32414,2354,-30,-60,-144,23636,23908,-1112,-15,-57,-44,8360,6984,-8290,-21,-10,-18
32767,32767,2096,-56,-41,-130,23796,23516,-958,-32,-59,-47,8478,6830,-8286,-25,-27,-23
32767,32767,2306,-50,-36,-121,23908,23450,-844,-50,-34,-48,8674,6676,-8500,-1,-24,-23
32767,32767,2528,-16,-37,-92,23740,23374,-886,-42,-8,-41,8640,6728,-8566,24,17,-24
32767,32767,2496,0,-26,-89,23498,23494,-646,-13,-13,-30,8496,6816,-8468,15,28,-29
32767,32767,2480,18,-7,-93,23474,23536,-600,15,-30,-18,8492,6920,-8396,24,18,-19
32767,32767,2342,6,-2,-128,23656,23644,-642,44,-46,-13,8614,6956,-8414,36,6,-14
32767,32767,2302,-41,-23,-66,23568,23786,-696,56,-50,-16,8830,6926,-8444,31,16,-26
32767,32638,2318,-60,-36,-24,23604,23848,-778,33,-57,-10,8786,6982,-8442,29,45,-42
32767,32550,2404,-24,-37,-50,23856,23724,-764,2,-56,-14,8592,6954,-8286,6,70,-38
32767,32608,2286,-33,-43,-83,23776,23598,-746,-11,-60,-34,8484,6884,-8222,-33,66,-28
32767,32767,2130,-39,-66,-84,23692,23548,-670,-9,-66,-32,8426,6634,-8202,-49,35,-28
32767,32767,2318,-53,-76,-49,23786,23448,-824,13,-49,-11,8554,6634,-8366,-7,31,-25
32767,32472,2568,-43,-83,-7,23536,23652,-790,42,-53,-4,8476,6772,-8414,21,49,-21
32767,32456,2644,-12,-73,-5,23568,23756,-912,39,-63,-6,8402,6924,-8422,20,51,-19
32767,32586,2738,18,-59,-14,23734,23758,-832,24,-55,-5,8476,6978,-8372,10,43,-20
32767,32767,2786,-4,-45,-28,23666,23736,-906,-22,-39,-4,8552,6914,-8352,1,37,-18
32767,32767,2680,-23,-30,-33,23480,23524,-736,-41,-37,-17,8684,6800,-8346,4,32,-8
32767,32604,2698,-66,-36,-38,23494,23462,-916,-19,-48,-20,8642,6798,-8392,18,42,5
32767,32260,2592,-50,-33,-27,23368,23416,-912,23,-58,-11,8454,6802,-8256,11,50,3
32767,32512,2452,11,-30,-31,23418,23568,-1036,47,-64,-8,8442,6802,-8356,0,30,0
32767,32767,2526,27,-39,-22,23612,23694,-1136,49,-62,-3,8488,6754,-8544,5,21,1
32767,32767,2574,-17,-35,-23,23692,23716,-1106,30,-50,1,8604,6856,-8444,7,32,-4
32767,32767,2644,-57,-45,-28,23684,23666,-1052,17,-47,-11,8506,6864,-8334,-20,50,-9
32767,32556,2486,-82,-43,-33,23706,23622,-868,3,-42,-29,8408,6808,-8396,-44,50,-9
32767,32462,2484,-42,-45,-27,23562,23562,-892,33,-40,-18,8444,6774,-8432,-44,34,-6
32767,32548,2370,-28,-46,-3,23590,23768,-892,59,-42,-8,8558,6632,-8564,-24,34,-4
32767,32352,2532,-34,-37,-7,23684,23924,-762,75,-39,5,8492,6626,-8610,0,59,-25
32767,32458,2536,-21,-38,-17,23684,24052,-696,63,-36,19,8498,6622,-8472,0,56,-48
32767,32656,2374,-10,-26,-26,23700,23990,-642,26,-37,23,8592,6636,-8510,-14,55,-58
32767,32767,2300,-34,-30,-28,23734,23838,-514,10,-40,23,8664,6582,-8502,-17,59,-49
32767,32556,2284,-48,-36,-29,23842,23774,-692,18,-38,25,8682,6622,-8506,1,69,-28
32767,32280,2280,-43,-48,-37,23818,23874,-636,45,-33,37,8532,6582,-8604,22,80,-11
32767,32310,2304,-13,-57,-25,23726,24166,-650,54,-45,48,8428,6644,-8484,41,79,-16
32767,32584,2462,35,-62,-24,23776,24236,-674,25,-53,57,8368,6658,-8490,51,61,-19
32767,32767,2548,28,-65,-27,23736,24116,-712,-5,-51,64,8490,6744,-8560,57,53,-15
32767,32767,2638,-11,-71,-30,23664,23982,-928,-21,-59,68,8498,6770,-8402,52,65,-8
32767,32767,2644,-36,-71,-27,23792,24032,-898,-33,-71,72,8432,6860,-8462,37,67,-1
32767,32767,2710,-25,-58,-8,24064,24064,-1010,-43,-52,80,8354,6920,-8366,29,58,19
32767,32652,2738,9,-49,7,23978,24236,-1176,-48,-20,99,8388,6874,-8348,40,46,39
32767,32767,2736,48,-35,6,23538,24142,-1122,-60,-18,105,8432,6794,-8324,54,29,52
32767,32767,2770,10,-43,6,23856,24282,-1086,-48,-44,96,8574,6822,-8614,61,21,59
32767,32767,2868,-108,-37,8,24260,24362,-1074,-70,-23,114,8522,6896,-8656,56,35,62
32767,32767,2786,-116,-29,10,24180,24356,-1228,-78,8,127,8534,7024,-8600,39,47,65
32767,32702,2728,-60,-12,3,23648,24292,-822,-108,7,110,8476,7018,-8572,-1,50,66
32767,32767,2704,-2,11,8,23902,24238,-790,-160,-4,80,8462,6968,-8494,-32,47,59
32767,32767,2526,-18,13,30,24148,24142,-896,-126,22,122,8500,6994,-8510,-60,51,53
32767,32767,2320,-98,15,68,23716,23946,-566,-156,28,141,8516,6996,-8618,-68,51,48
32767,32767,2172,-139,-1,92,23472,24098,-662,-119,17,126,8620,6974,-8792,-66,49,50
32767,32767,2232,-144,-15,92,23496,24164,-854,-128,1,163,8740,6998,-8732,-75,67,48
32767,32767,2280,-76,-8,98,23640,24018,-510,-179,-25,132,8634,7062,-8706,-96,98,43
32767,32767,2254,-42,-10,131,24122,24080,-976,-136,-23,137,8520,7150,-8630,-114,100,43
32767,32767,2152,-95,-27,121,23900,23824,-896,-159,-4,175,8514,7038,-8660,-112,80,59
32767,32767,2340,-165,-75,104,23852,23746,-856,-132,-8,138,8648,7044,-8576,-122,89,59
32767,32767,2242,-136,-74,170,23844,24038,-902,-89,-6,119,8418,6942,-8522,-136,102,56
32767,32634,2546,-74,-55,167,23696,23988,-952,-120,3,112,8298,6822,-8542,-133,93,59
32767,32767,2578,-77,-84,173,23344,23782,-834,-125,-17,82,8326,6802,-8668,-110,69,57
32767,32767,2742,-138,-62,153,23590,23762,-786,-134,-30,58,8590,6878,-8670,-101,65,49
32767,32767,3028,-163,-52,176,23744,23648,-912,-97,-22,84,8666,6924,-8688,-114,75,39
32767,32767,2708,-219,-53,232,23654,23610,-824,-75,-13,90,8560,7074,-8650,-134,91,33
32767,32460,2462,-208,-7,190,23704,23870,-848,-26,-24,71,8380,7094,-8714,-150,82,43
32767,32516,2446,-102,-23,194,23642,24202,-948,-18,-14,69,8424,7058,-8842,-138,63,54
32767,32692,2382,-119,-17,232,23424,24218,-844,-79,-17,55,8530,7016,-8964,-138,64,56
32767,32354,2394,-158,-36,196,23714,24210,-918,-94,-24,44,8482,6798,-8912,-145,80,47
32767,32284,2412,-156,-44,168,23748,24094,-1042,-132,-13,62,8378,6642,-8806,-132,76,34
32767,32272,2730,-161,-56,140,23552,23994,-886,-137,-15,54,8366,6516,-8740,-121,62,19
32767,32544,2554,-159,-56,124,23738,24144,-1068,-121,-16,56,8278,6550,-8722,-106,60,17
32767,32318,2568,-87,-37,140,23702,24126,-976,-139,-14,67,8208,6604,-8666,-68,46,23
32767,32502,2562,-62,-34,147,23856,24190,-1078,-130,-7,65,8314,6798,-8866,-9,19,27
32767,32767,2542,-68,-36,141,23848,24310,-1096,-123,-2,71,8414,6910,-8876,7,17,18
32767,32767,2582,-122,-45,100,23724,24282,-924,-181,0,57,8504,6896,-8798,-15,19,-2
32767,32767,2514,-189,-47,100,23872,24178,-948,-183,10,51,8520,6920,-8764,-45,33,-21
32767,32722,2436,-163,-25,125,23770,23942,-982,-184,3,51,8446,6880,-8830,-69,36,-30
32767,32767,2512,-103,-9,144,23742,23892,-816,-153,-10,37,8416,6916,-8826,-70,33,-25
32767,32767,2498,-105,-16,132,23980,23944,-918,-93,-21,30,8408,6884,-8864,-79,36,-30
32767,32767,2506,-175,-3,188,23764,23852,-778,-83,-16,-2,8392,6858,-8842,-96,40,-39
32767,32767,2294,-208,-14,195,23594,23958,-688,-59,-28,-16,8520,6842,-8820,-101,36,-48
32767,32516,2392,-194,0,222,23662,23836,-742,-60,-33,-2,8608,6878,-8898,-83,41,-50
32767,32767,2446,-175,-16,182,23630,23858,-738,-39,-39,3,8546,6892,-8790,-90,53,-53
32767,32767,2258,-204,-24,149,23696,23994,-890,-33,-53,1,8470,6854,-8916,-102,59,-54
32767,32767,2402,-226,-23,162,23794,24080,-820,-33,-57,3,8476,6732,-8962,-97,55,-53
32767,32767,2386,-211,-30,179,23886,24076,-818,-50,-51,-3,8538,6694,-8952,-65,55,-48
32767,32600,2556,-190,-36,157,23844,24068,-916,-67,-41,-9,8530,6786,-9004,-36,65,-44
32767,32684,2544,-201,-50,111,23644,23992,-962,-77,-45,-10,8404,6904,-8946,-25,63,-37
32767,32476,2608,-186,-71,54,23690,23858,-856,-47,-67,-21,8358,6804,-8826,-21,48,-26
32767,32388,2696,-153,-71,41,23814,23906,-842,-19,-80,-22,8360,6714,-8740,-5,43,-35
32767,32642,2720,-112,-70,38,23924,23968,-884,-7,-75,-19,8386,6568,-8756,-19,40,-51
32767,32767,2694,-99,-61,45,24034,24092,-970,21,-67,-14,8460,6402,-8836,-23,34,-55
32767,32767,2696,-121,-48,54,23858,24280,-966,26,-55,-23,8454,6468,-8804,-3,32,-60
32767,32767,2748,-145,-33,50,23708,24328,-842,-13,-44,-28,8446,6646,-8842,19,38,-63
32767,32702,2590,-144,-32,40,23624,24134,-870,-36,-45,-29,8370,6828,-8772,14,38,-59
32767,32684,2522,-117,-25,35,23710,23960,-856,-35,-57,-32,8414,6774,-8976,-13,29,-63
32767,32767,2582,-106,-38,34,23856,23906,-738,13,-72,-36,8544,6756,-9058,-25,24,-69
32767,32767,2574,-139,-40,37,23976,24144,-902,47,-71,-31,8554,6598,-9026,-38,54,-72
32767,32578,2616,-135,-34,34,23882,24252,-824,47,-59,-22,8460,6534,-8964,-49,62,-74
32767,32518,2538,-80,-27,25,23774,24294,-808,11,-56,-26,8410,6510,-8864,-29,59,-74
32767,32767,2464,-35,-20,17,23686,24216,-666,-16,-61,-32,8310,6502,-8904,-3,45,-61
32767,32767,2362,-46,-33,14,23840,23968,-780,-30,-75,-46,8312,6480,-9002,14,34,-47
32767,32767,2376,-95,-48,8,23912,23824,-764,1,-79,-59,8484,6402,-9056,29,27,-46
32767,32767,2292,-115,-64,10,23904,23702,-876,37,-89,-59,8548,6452,-8980,41,33,-60
32767,32586,2510,-46,-54,13,24004,23918,-730,77,-85,-68,8482,6546,-9122,47,55,-56
32767,32714,2622,8,-42,4,23970,24142,-778,63,-55,-71,8332,6584,-9106,29,68,-35
32767,32767,2648,8,-44,2,23636,24116,-688,50,-49,-69,8168,6548,-8888,16,55,-26
32767,32767,2556,-14,-44,-18,23462,23918,-700,28,-76,-91,8284,6494,-8932,15,24,-33
32767,32767,2510,-61,-58,-36,23652,23846,-632,44,-104,-108,8488,6456,-9078,27,15,-42
32767,32767,2502,-81,-64,-29,23900,23832,-568,66,-111,-89,8570,6510,-9096,32,33,-42
32767,32766,2642,-85,-55,-27,23942,23884,-654,68,-91,-72,8474,6594,-9156,28,58,-34
32767,32544,2636,-34,-51,-13,23826,23998,-672,53,-68,-89,8336,6588,-9148,16,57,-22
32767,32586,2678,10,-42,-33,23706,24062,-844,27,-63,-105,8300,6448,-9020,8,45,-17
32767,32767,2594,5,-47,-74,23800,23942,-616,20,-78,-103,8158,6334,-8736,12,33,-21
32767,32767,2518,-12,-62,-101,23790,23698,-594,31,-92,-131,8266,6286,-8794,27,12,-20
32767,32767,2482,-33,-77,-78,23716,23730,-684,66,-101,-146,8356,6234,-9000,68,0,-11
32767,32666,2634,-59,-91,-88,23820,23806,-696,77,-99,-133,8454,6186,-9102,96,7,-8
32767,32436,2836,-60,-74,-96,23776,23850,-804,80,-82,-138,8370,6324,-9058,87,25,-14
32767,32462,3004,17,-58,-106,23656,24046,-724,75,-75,-149,8146,6426,-8784,59,26,-27
32767,32767,2868,93,-41,-111,23694,24132,-972,80,-81,-136,8076,6518,-8664,48,-5,-24
32767,32767,2556,13,-45,-139,23666,24102,-750,34,-89,-144,8252,6516,-8774,42,-39,-14
32767,32767,2526,-91,-55,-89,23768,24162,-938,45,-93,-131,8490,6420,-8980,46,-41,-9
32767,32674,2574,-105,-57,-111,23838,23966,-1010,11,-83,-123,8534,6438,-9142,57,-26,-10
32767,32348,2778,-58,-48,-160,23750,23980,-984,-1,-72,-134,8358,6458,-9112,56,-11,-5
32767,32082,2842,4,-49,-134,23560,23980,-1222,15,-66,-130,8232,6478,-8950,37,-14,-10
32767,32424,2790,29,-38,-140,23570,23864,-1002,15,-76,-125,8142,6464,-8794,15,-31,-16
32767,32758,2650,13,-38,-198,23692,23876,-1068,62,-87,-113,8220,6270,-8710,18,-54,-12
32767,32767,2546,5,-44,-202,23830,23994,-1254,104,-90,-94,8356,6120,-8906,41,-66,-6
32767,32767,2520,-18,-56,-135,23728,24050,-1134,67,-77,-105,8446,6138,-8988,77,-66,-2
32767,32767,2610,-54,-41,-166,23524,24044,-1074,59,-79,-113,8446,6224,-9086,98,-52,-10
32767,32767,2674,-29,-38,-156,23632,23966,-940,38,-83,-104,8304,6572,-8898,80,-43,-23
32767,32767,2686,2,-35,-162,23830,23762,-858,44,-75,-91,8288,6612,-8854,39,-48,-21
32767,32767,2594,-45,-18,-177,23774,23888,-882,61,-68,-83,8426,6528,-8928,14,-53,-18
32767,32767,2420,-98,-35,-179,23562,23980,-810,40,-47,-65,8630,6376,-9028,7,-37,-18
32767,32766,2350,-97,-37,-154,23610,23988,-996,64,-60,-48,8558,6254,-9046,6,-7,-22
32767,32356,2424,-27,-34,-122,23770,24058,-832,65,-68,-54,8502,6220,-9094,7,11,-28
32767,32626,2338,46,-30,-123,23852,24036,-902,45,-62,-58,8400,6198,-8996,14,7,-34
32767,32360,2392,50,-18,-85,23852,24050,-856,-2,-40,-48,8498,6272,-8790,30,2,-29
32767,32767,2230,1,-40,-121,23728,24104,-800,11,-35,-28,8624,6198,-8926,64,5,-22
32767,32767,2360,-45,-39,-172,23512,24050,-900,22,-44,-10,8478,6188,-8880,81,26,-26
32767,32767,2384,-14,-54,-159,23690,24018,-748,3,-58,-15,8418,6142,-8786,83,36,-37
32767,32510,2488,48,-43,-132,23784,24092,-1020,23,-56,-15,8294,6158,-8746,91,27,-40
32767,32767,2608,68,-51,-97,23586,23962,-1064,13,-52,-6,8328,6276,-8774,98,17,-35
32767,32767,2410,49,-49,-122,23960,23878,-1068,16,-44,1,8384,6396,-8776,94,8,-37
32767,32767,2618,-11,-55,-82,23664,23848,-1086,11,-23,11,8524,6476,-8916,90,17,-40
32767,32767,2528,-56,-52,-92,23532,23870,-1104,24,-35,4,8512,6568,-8898,69,40,-29
32767,32494,2514,-19,-51,-59,23616,23982,-1122,51,-44,0,8324,6536,-8758,0,49,-25
32767,32767,2452,24,-35,-80,23650,23992,-1050,54,-41,9,8304,6362,-8798,-36,34,-31
32767,32767,2512,47,-40,-27,23770,24046,-994,37,-43,24,8446,6270,-8866,-18,26,-26
32767,32767,2724,26,-36,-8,23944,24116,-870,7,-24,23,8474,6244,-8988,6,43,-17
32767,32767,2710,-48,-38,-34,23732,24092,-828,-12,-22,23,8406,6286,-9000,-3,59,-20
32767,32767,2588,-59,-40,-26,23628,23982,-722,-11,-30,22,8372,6306,-8970,-10,62,-29
32767,32724,2588,-24,-23,-27,23876,23872,-736,19,-48,28,8524,6218,-8918,-19,56,-32
32767,32758,2414,-14,-16,-36,23968,23942,-616,50,-51,34,8546,6154,-8926,-22,60,-30
32767,32767,2342,31,-18,-25,23812,24102,-682,71,-56,47,8440,6146,-8918,-24,80,-26
32767,32767,2318,10,-32,-15,23748,24284,-736,53,-68,56,8394,6030,-8980,-7,81,-19
32767,32767,2356,-58,-43,-8,23862,24256,-768,26,-70,58,8462,6014,-9134,23,81,-15
32767,32446,2346,-55,-51,-11,23852,24158,-796,-9,-67,54,8442,6106,-9038,38,88,-24
32767,32548,2438,15,-47,-31,23892,24062,-876,-27,-59,48,8440,6138,-8878,26,92,-35
32767,32767,2490,62,-47,-30,23876,24020,-890,-24,-57,49,8402,6194,-8894,11,91,-35
32767,32767,2524,12,-56,-23,23814,24020,-860,-9,-55,53,8408,6204,-8864,14,89,-18
32767,32767,2614,-74,-71,-2,23820,24086,-826,0,-58,58,8388,6206,-9014,30,87,2
32767,32630,2638,-72,-70,-9,23742,24144,-754,17,-63,68,8436,6222,-9056,53,81,14
32767,32666,2750,-17,-62,-11,23766,24276,-820,9,-65,69,8416,6260,-9084,51,83,19
32767,32767,2870,23,-53,-5,23806,24418,-784,1,-67,73,8374,6296,-8994,44,84,27
32767,32767,2920,9,-41,3,23962,24340,-822,-38,-57,76,8346,6366,-8852,40,81,28
32767,32767,2948,-22,-39,-4,24040,24222,-912,-36,-51,68,8366,6314,-8940,26,72,21
32767,32767,2880,-32,-33,-6,24132,24270,-868,-39,-40,57,8340,6346,-8900,16,68,18
32767,32767,2812,-40,-25,4,24056,24280,-868,-53,-20,61,8386,6374,-9052,12,69,25
32767,32767,2746,-43,-18,18,23796,24366,-822,-65,-16,66,8440,6360,-9072,-5,74,31
32767,32767,2568,-49,-19,18,23866,24404,-906,-62,-20,65,8478,6302,-9114,-21,75,30
32767,32767,2652,-41,-24,18,23696,24350,-698,-60,-26,67,8422,6324,-9040,-33,76,23
32767,32767,2642,-32,-24,23,23916,24482,-860,-30,-28,79,8386,6264,-9190,-47,84,17
32767,32767,2634,-22,-28,20,23882,24366,-866,-46,-25,90,8296,6252,-9094,-59,96,16
32767,32767,2726,-45,-31,22,23938,24370,-808,-29,-35,84,8232,6222,-9100,-61,91,17
32767,32767,2676,-87,-22,41,24194,24570,-974,-26,-30,92,8224,6254,-9130,-55,77,22
32767,32767,2550,-83,-19,50,23994,24608,-932,-55,-18,106,8284,6278,-9196,-38,65,29
32767,32767,2534,-62,-11,47,23702,24598,-898,-67,-27,96,8314,6334,-9238,-21,61,42
32767,32767,2376,-56,-17,61,23722,24548,-870,-88,-41,92,8426,6354,-9130,-21,55,48
32767,32767,2398,-71,-31,77,23728,24338,-748,-87,-48,114,8326,6384,-9270,-21,59,37
32767,32767,2522,-92,-52,73,24116,24422,-802,-77,-44,132,8304,6428,-9420,-30,61,32
32767,32767,2610,-124,-54,90,24020,24678,-962,-54,-17,170,8248,6460,-9270,-46,67,39
32767,32767,2720,-147,-65,62,23882,24750,-1140,-92,-6,173,8274,6376,-9268,-65,68,44
32767,32767,2610,-151,-45,112,24048,24738,-1208,-176,-8,136,8306,6416,-9234,-75,63,46
32767,32748,2648,-88,-30,65,24082,24406,-1050,-193,-2,138,8386,6320,-9352,-77,51,46
32767,32767,2718,-20,-27,134,23954,24094,-950,-190,-1,123,8484,6382,-9304,-68,56,49
32767,32767,2716,-21,-18,146,23872,24062,-798,-168,-20,101,8384,6480,-9332,-68,64,46
32767,32767,2574,-104,-19,116,24142,24186,-972,-114,-11,106,8336,6490,-9368,-75,57,52
32767,32767,2704,-152,-27,127,23902,24268,-842,-107,-1,103,8384,6398,-9428,-93,64,54
32767,32767,2688,-100,-29,126,23850,24450,-952,-66,8,88,8316,6260,-9348,-124,83,47
32767,32767,2778,-38,-5,109,23582,24402,-782,-102,-3,85,8130,6160,-9218,-141,81,32
32767,32767,2566,-4,5,148,23668,24380,-708,-119,-11,61,8076,6220,-9188,-126,60,28
32767,32767,2482,-19,42,206,23938,24370,-888,-100,-7,76,8294,6300,-9302,-99,31,35
32767,32767,2502,-99,29,210,23888,24338,-766,-126,3,88,8520,6518,-9468,-82,32,40
32767,32767,2528,-236,1,179,23896,24364,-1042,-73,18,88,8650,6564,-9470,-97,63,33
32767,32744,2338,-212,6,248,23718,24430,-1024,-98,-5,81,8496,6616,-9570,-149,97,24
32767,32767,2422,-149,3,198,23726,24414,-964,-80,-18,50,8306,6450,-9480,-167,97,25
32767,32767,2464,-138,1,171,23962,24326,-972,-65,-28,40,8222,6266,-9450,-176,88,23
32767,32767,2486,-160,-29,186,24064,24380,-828,-54,-37,45,8180,6194,-9312,-168,82,21
32767,32738,2340,-162,-19,188,23978,24500,-956,-5,-35,46,8152,6044,-9404,-136,67,26
32767,32767,2356,-163,-53,155,23924,24614,-938,-19,-45,26,8230,6018,-9462,-86,54,34
32767,32767,2448,-177,-43,128,24144,24618,-812,-37,-55,-5,8210,6072,-9462,-49,53,31
32767,32767,2606,-178,-67,112,24096,24560,-728,-104,-34,-26,8138,6138,-9478,-42,52,6
32767,32767,2496,-168,-46,154,23536,24088,-718,-119,-28,-17,8156,6254,-9330,-57,42,-10
32767,32656,2608,-133,-17,168,23550,23998,-730,-90,-49,-12,8170,6254,-9406,-65,30,-6
32767,32767,2300,-95,-19,165,23860,24164,-794,-57,-52,1,8448,6304,-9602,-50,18,-1
32767,32767,2432,-119,8,158,23968,24360,-872,-46,-33,14,8560,6364,-9728,-44,29,-5
32767,32767,2558,-156,-16,175,23834,24566,-868,-72,-25,-6,8504,6446,-9756,-59,56,-18
32767,32722,2372,-168,-7,183,23894,24492,-952,-91,-36,-27,8306,6468,-9740,-84,73,-27
32767,32688,2314,-82,23,226,23856,24400,-938,-100,-45,-33,8310,6382,-9576,-99,68,-26
32767,32440,2440,31,38,229,23948,24366,-938,-88,-51,-25,8362,6210,-9558,-86,53,-17
32767,32767,2626,115,6,151,24100,24388,-1054,-57,-52,-15,8358,6244,-9538,-31,53,-13
32767,32767,2626,-9,-22,84,24090,24516,-932,-43,-44,-17,8184,6212,-9456,-20,50,-8
32767,32767,2592,-184,-36,13,23908,24556,-962,-37,-43,-21,8104,6066,-9344,-30,27,-12
32767,32767,2422,-202,-58,17,24068,24552,-1008,-20,-50,-26,8200,5968,-9334,-15,-2,-38
32767,32640,2476,-112,-44,30,24100,24556,-918,-18,-54,-40,8392,6054,-9260,18,-9,-70
32767,32767,2616,-30,-30,36,24040,24560,-788,-4,-61,-51,8340,6140,-9412,14,19,-81
32767,32767,2528,-50,-19,44,23956,24510,-742,-11,-75,-56,8126,6170,-9432,-17,32,-76
32767,32767,2516,-135,-17,59,24018,24464,-746,-8,-72,-52,8164,6176,-9470,-29,17,-70
32767,32767,2374,-207,-28,68,23950,24304,-716,13,-73,-52,8382,6194,-9656,-23,0,-73
32767,32767,2418,-192,-30,75,24020,24268,-728,29,-83,-58,8606,6286,-9702,-15,18,-94
32767,32767,2438,-145,-17,73,23936,24208,-686,51,-88,-63,8506,6262,-9640,-44,49,-105
32767,32767,2510,-96,-11,70,24062,24396,-656,51,-87,-65,8336,6100,-9664,-83,63,-107
32767,32767,2518,-93,-10,63,23962,24544,-754,40,-59,-49,8208,5924,-9576,-86,49,-102
32767,32767,2440,-112,-12,56,23622,24510,-826,34,-60,-42,8238,5812,-9594,-48,37,-92
32767,32767,2304,-129,-20,47,23808,24394,-774,0,-80,-59,8348,5852,-9614,0,32,-85
32767,32767,2304,-126,-20,51,24158,24378,-800,-5,-77,-72,8470,5976,-9656,39,44,-77
32767,32767,2394,-77,-35,28,23976,24144,-808,-7,-66,-81,8374,6034,-9784,67,59,-67
32767,32767,2434,-86,-42,6,23972,23956,-640,-30,-79,-121,8234,6120,-9670,71,55,-56
32767,32767,2502,-77,-53,-14,24030,24082,-798,31,-79,-118,8226,6018,-9620,54,52,-57
32767,32767,2544,-63,-57,-24,23890,24012,-624,-1,-66,-115,8236,5948,-9512,50,43,-55
32767,32767,2560,-59,-53,-31,23838,24084,-726,47,-76,-120,8284,5920,-9528,62,40,-40
32767,32767,2690,-55,-43,-26,23706,24362,-686,47,-76,-124,8274,5950,-9628,81,41,-27
32767,32767,2536,-29,-37,-44,23832,24516,-788,72,-83,-107,8190,5960,-9558,74,39,-25
32767,32767,2558,-17,-31,-66,23908,24320,-784,55,-99,-133,8126,5946,-9394,47,29,-32
32767,32767,2424,23,-40,-54,24030,24344,-678,31,-106,-167,8166,5924,-9442,37,11,-44
32767,32767,2690,10,-36,-12,24068,24362,-874,10,-78,-147,8392,5920,-9560,39,3,-48
32767,32767,2572,-56,-29,-58,23990,24130,-850,-8,-62,-126,8450,5900,-9688,25,20,-46
32767,32767,2512,-76,-39,-44,23932,24266,-816,32,-64,-141,8296,5930,-9710,6,37,-42
32767,32746,2642,-50,-32,-36,23734,24394,-844,46,-79,-142,8220,5834,-9632,4,24,-34
32767,32767,2488,-57,-44,-122,23872,24390,-918,43,-97,-135,8232,5770,-9492,9,3,-37
32767,32767,2588,-75,-44,-88,23920,24260,-886,60,-100,-144,8266,5648,-9468,11,-6,-42
32767,32767,2608,-41,-59,-143,23832,24194,-796,42,-101,-164,8188,5474,-9430,16,-13,-49
32767,32767,2444,-38,-63,-122,23902,24284,-946,65,-96,-140,8112,5508,-9524,52,-21,-42
32767,32767,2606,-21,-60,-124,23974,24174,-932,54,-85,-124,8118,5700,-9628,96,-39,-40
32767,32767,2544,-20,-57,-78,23812,24232,-980,87,-87,-123,8258,5898,-9728,114,-45,-29
32767,32767,2580,-50,-64,-102,23682,24324,-856,78,-88,-143,8354,5960,-9538,101,-35,-20
32767,32767,2656,-125,-52,-142,23934,24370,-926,62,-81,-108,8318,5904,-9448,62,-21,-23
32767,32767,2474,-50,-39,-183,23834,24316,-926,25,-61,-91,8156,5840,-9344,25,-28,-32
32767,32767,2350,48,-45,-166,23676,24388,-904,38,-62,-72,8206,5756,-9448,27,-58,-32
32767,32767,2302,2,-41,-124,23694,24406,-988,54,-71,-50,8420,5712,-9644,51,-65,-20
32767,32767,2412,-95,-57,-127,23824,24306,-1020,56,-82,-61,8594,5830,-9714,56,-34,-12
32767,32767,2438,-114,-72,-155,24054,24358,-1092,55,-92,-80,8362,5924,-9700,30,5,-19
32767,32700,2516,-40,-49,-178,24016,24302,-984,14,-76,-86,8142,5830,-9530,12,-3,-20
32767,32767,2424,1,-50,-166,23930,24244,-988,-9,-53,-76,8256,5692,-9440,-1,-25,-19
32767,32767,2450,9,-37,-165,23756,24164,-936,2,-46,-52,8342,5546,-9292,12,-27,-16
32767,32767,2346,71,-45,-176,23754,24230,-914,56,-57,-30,8340,5472,-9470,48,-23,-14
32767,32767,2342,29,-48,-156,23876,24202,-908,36,-59,-35,8342,5558,-9534,96,-14,-2
32767,32762,2252,-43,-59,-136,23984,24404,-854,55,-52,-37,8278,5602,-9454,97,-4,-1
32767,32767,2392,-62,-58,-100,23752,24512,-946,51,-44,-28,8224,5746,-9300,71,-4,-14
32767,32767,2150,63,-58,-128,23648,24450,-898,30,-48,-11,8218,5736,-9178,46,-13,-26
32767,32767,2274,43,-35,-90,23758,24308,-1024,35,-61,-7,8406,5786,-9486,55,-19,-26
32767,32767,2486,56,-39,-113,23850,24282,-1018,36,-66,-18,8506,5844,-9652,56,5,-21
32767,32767,2492,12,-30,-69,23888,24140,-1026,31,-61,-10,8472,5906,-9656,38,31,-16
32767,32767,2406,-56,-25,-66,23832,24080,-1030,58,-58,-9,8400,5840,-9514,2,46,-16
32767,32767,2266,-54,-23,-114,23840,24156,-1048,71,-53,-19,8298,5706,-9318,-31,47,-20
32767,32767,2128,-14,-34,-86,23756,24210,-990,47,-44,-7,8234,5520,-9360,-32,35,-27
32767,32767,2166,28,-39,-87,23838,24224,-990,36,-42,6,8394,5402,-9346,9,17,-29
32767,32767,2404,5,-55,-18,23826,24222,-840,19,-27,0,8382,5478,-9502,52,31,-22
32767,32767,2404,-23,-56,-59,23820,24242,-808,6,-18,6,8238,5722,-9492,60,56,-10
32767,32767,2366,-62,-56,-48,23958,24452,-748,24,-3,21,8192,5766,-9490,57,46,-6
32767,32767,2334,-51,-52,-46,23938,24532,-676,12,6,36,8292,5778,-9474,55,38,-4
32767,32767,2410,-14,-59,-23,23858,24514,-626,-4,5,47,8450,5750,-9558,44,51,-15
32767,32767,2494,-8,-40,-38,23870,24474,-696,-13,-6,46,8480,5716,-9568,37,67,-25
32767,32767,2518,1,-37,-36,23986,24466,-704,-18,-19,51,8380,5682,-9570,20,86,-21
32767,32767,2380,15,-29,-32,24280,24478,-710,-15,-26,68,8268,5664,-9592,9,97,-12
32767,32767,2284,19,-33,-40,24198,24558,-910,-16,-19,65,8286,5546,-9520,7,91,-15
32767,32767,2202,3,-41,-47,24026,24632,-834,-73,-5,70,8368,5498,-9416,4,81,-25
32767,32767,2128,10,-49,-44,24036,24524,-782,-125,1,86,8396,5398,-9496,10,90,-36
32767,32767,2258,27,-51,-30,23972,24422,-724,-186,21,84,8272,5432,-9466,21,95,-40
32767,32767,2290,33,-57,-16,23858,24318,-794,-215,35,82,8090,5504,-9534,26,90,-33
32767,32767,2404,-5,-61,-2,23938,24322,-742,-218,43,90,8142,5518,-9362,28,73,-26
32767,32767,2418,-38,-70,13,23970,24442,-786,-212,61,106,8174,5584,-9380,42,66,-23
32767,32767,2410,-43,-71,12,23590,24470,-956,-192,58,124,8210,5694,-9508,57,64,-19
32767,32767,2628,-30,-73,9,23650,24462,-866,-177,8,109,8232,5766,-9546,44,61,-17
32767,32767,2670,-31,-64,11,23990,24428,-1030,-141,-8,108,8400,5782,-9542,2,57,-10
32767,32767,2724,-42,-56,32,24068,24282,-1092,-141,-10,114,8464,5788,-9498,-21,69,5
32767,32767,2798,-55,-37,56,24292,24374,-1084,-98,-10,108,8410,5838,-9560,-29,83,22
32767,32767,2754,-50,-22,68,24180,24524,-942,-84,-4,104,8160,5870,-9568,-41,79,31
32767,32767,2700,-35,-14,67,24058,24546,-954,-112,7,91,8164,5826,-9394,-72,57,31
32767,32767,2596,-55,-19,54,23674,24596,-1152,-69,11,116,8332,5722,-9346,-106,20,14
32767,32767,2568,-98,-18,85,23604,24410,-878,-90,-22,101,8368,5694,-9396,-119,30,-13
32767,32767,2628,-141,-34,95,23966,24546,-1024,-75,-29,97,8196,5738,-9492,-151,50,-21
32767,32767,2526,-173,-57,108,23942,24470,-944,-102,-8,116,7982,5584,-9456,-207,38,-5
32767,32767,2444,-201,-57,176,23928,24568,-1102,-89,2,136,8126,5630,-9476,-210,12,1
32767,32767,2542,-233,-58,208,23766,24644,-1104,-78,6,154,8396,5596,-9690,-185,-3,0
32767,32767,2458,-309,-63,189,23736,24642,-1010,-124,-10,126,8570,5680,-9924,-162,17,0
32767,32767,2756,-286,-55,204,24014,24748,-1256,-106,-2,116,8552,5710,-10002,-163,59,-2
32767,32692,2760,-241,-17,211,23700,24246,-996,-174,-8,100,8348,5712,-9838,-173,88,-5
32767,32767,2738,-145,1,153,23782,24048,-1082,-106,-22,80,8266,5608,-9684,-170,77,9
32767,32767,2496,-119,9,142,23984,23994,-1114,-93,-37,74,8264,5536,-9618,-137,49,39
32767,32767,2348,-145,-23,144,23798,23950,-1070,5,-21,90,8282,5414,-9632,-100,42,66
32767,32767,2166,-147,-45,176,23570,24070,-926,8,-37,73,8228,5452,-9804,-56,47,72
32767,32767,2518,-139,-24,137,23878,24460,-708,22,-39,50,8324,5520,-9932,-33,35,68
32767,32767,2700,-110,-53,110,24002,24616,-968,-16,-11,67,8442,5664,-9796,-34,51,59
32767,32767,2726,-129,-41,125,23658,24498,-778,-63,-1,76,8306,5772,-9632,-71,76,49
32767,32767,2668,-101,-33,120,23732,24508,-894,-64,-18,50,8066,5762,-9558,-121,74,42
32767,32767,2312,-68,-27,184,23728,24556,-900,-78,-11,66,8140,5638,-9686,-133,54,45
32767,32767,2354,-69,-3,161,23608,24356,-916,-78,-21,64,8298,5578,-9830,-116,39,48
32767,32767,2412,-167,-38,158,23874,24500,-1012,-74,-38,42,8472,5680,-9896,-107,60,41
32767,32767,2488,-243,-14,171,24060,24598,-1084,-72,-18,60,8388,5776,-9944,-119,99,34
32767,32767,2502,-209,-46,114,23762,24540,-1038,-113,-12,55,8268,5626,-9886,-142,102,29
32767,32767,2346,-189,-38,169,23798,24590,-1040,-113,-12,32,8272,5484,-9848,-135,96,29
32767,32210,2608,-129,-28,111,24004,24530,-1190,-117,0,42,8264,5292,-9802,-108,91,31
32767,32767,2400,-5,-23,166,23616,24304,-1090,-85,-22,27,8166,5220,-9752,-53,95,38
32767,32767,2602,-8,-38,89,23682,24438,-1022,-31,-56,-8,8066,5234,-9676,-18,81,30
32767,32767,2484,-77,-59,95,23990,24632,-1032,-29,-62,-3,8060,5344,-9648,-9,57,18
32767,32767,2352,-82,-59,112,24002,24506,-1008,-36,-35,22,8112,5384,-9634,6,39,15
32767,32767,2686,-101,-55,103,23886,24488,-1150,-24,-28,25,8158,5694,-9894,39,35,15
32767,32767,2514,-139,-50,110,23794,24494,-1112,-16,-31,6,8104,5880,-9950,13,40,5
32767,32767,2564,-117,-37,110,23778,24530,-1094,-19,-36,-3,8180,5876,-9960,-44,44,-14
32767,32767,2776,-101,-30,111,23734,24694,-1130,-34,-46,-7,8310,5742,-9902,-87,46,-30
32767,32767,2722,-104,-19,112,23872,24694,-944,-57,-40,7,8252,5672,-9900,-117,49,-42
32767,32767,2458,-98,-3,128,23830,24680,-1034,-88,-31,19,8268,5526,-9876,-134,54,-42
32767,32767,2584,-137,-14,94,23712,24606,-928,-105,-36,9,8190,5378,-9786,-126,51,-43
32767,32767,2400,-184,-18,123,23750,24488,-1048,-109,-44,-5,8242,5354,-9952,-101,43,-46
32767,32767,2264,-170,-10,127,24044,24402,-1012,-89,-57,-14,8336,5306,-10202,-57,36,-44
32767,32767,2442,-106,-22,94,24192,24338,-906,-68,-62,-23,8390,5352,-10236,-2,43,-37
32767,32767,2670,-92,-33,100,24210,24442,-902,-50,-56,-33,8384,5434,-10142,27,59,-45
32767,32767,2638,-116,-30,69,24050,24600,-886,-21,-51,-37,8184,5466,-9898,8,69,-62
32767,32767,2448,-106,-29,56,23982,24564,-834,21,-65,-37,8024,5324,-9756,-6,49,-65
32767,32767,2326,-83,-20,57,24038,24528,-842,62,-88,-44,8076,5274,-10028,21,25,-51
32767,32767,2392,-63,-15,68,24108,24520,-790,94,-103,-54,8308,5272,-10046,53,14,-39
32767,32767,2324,-75,-13,87,24114,24870,-968,60,-78,-38,8408,5372,-10074,67,28,-54
32767,32767,2456,-64,-17,94,23808,24772,-904,35,-69,-27,8314,5526,-9916,14,63,-88
32767,32767,2558,-63,-19,83,23812,24650,-956,9,-86,-46,8090,5464,-9830,-45,65,-101
32767,32767,2576,-101,-31,63,23900,24386,-928,15,-108,-66,8080,5322,-9912,-65,43,-101
32767,32767,2566,-174,-29,70,24100,24244,-992,41,-116,-95,8332,5328,-9942,-35,27,-107
32767,32767,2506,-219,-27,79,24124,24088,-892,85,-119,-113,8540,5386,-10106,-8,32,-112
32767,32767,2422,-197,-13,75,24002,24122,-736,79,-109,-124,8512,5326,-10156,-9,61,-105
32767,32767,2576,-133,-8,52,23830,24538,-778,95,-82,-125,8296,5308,-10050,-9,81,-93
32767,32767,2482,-116,-23,21,23750,24794,-834,119,-91,-80,8120,5286,-10030,12,68,-87
32767,32767,2516,-152,-41,12,23828,24544,-700,92,-117,-111,8164,5284,-10126,41,41,-72
32767,32767,2610,-153,-52,10,24040,24598,-850,97,-130,-138,8426,5216,-10268,84,34,-45
32767,32767,2728,-96,-44,-6,23994,24442,-790,54,-121,-156,8342,5262,-10142,109,58,-30
32767,32767,2766,-15,-34,-27,23958,24358,-846,61,-110,-157,8176,5344,-10006,96,69,-29
32767,32767,2714,40,-24,-57,23950,24354,-910,50,-88,-150,8008,5378,-9926,51,52,-35
32767,32767,2488,53,-30,-32,23806,24408,-940,67,-86,-141,8170,5190,-9916,30,20,-33
32767,32767,2462,-5,-44,-34,23738,24498,-962,97,-93,-138,8430,5198,-10126,52,7,-22
32767,32767,2592,-88,-47,-34,23750,24506,-928,109,-120,-139,8498,5264,-10346,63,35,-13
32767,32767,2726,-93,-43,-64,23902,24582,-944,63,-113,-167,8392,5402,-10348,40,68,-11
32767,32752,2634,-5,-41,-88,24024,24562,-1030,33,-99,-156,8122,5214,-10054,6,71,-2
32767,32566,2528,45,-40,-153,23970,24394,-1004,-11,-70,-152,7914,4982,-9890,2,50,0
32767,32716,2350,67,-71,-126,23768,24366,-1080,22,-72,-136,7996,4734,-9754,18,9,-15
32767,32767,2252,40,-70,-111,23690,24388,-1028,24,-77,-147,8116,4720,-9978,71,-26,-16
32767,32767,2598,64,-81,-142,23610,24454,-1126,80,-87,-139,8278,4854,-10220,134,-28,5
32767,32767,2806,-7,-85,-91,23690,24432,-1012,91,-104,-139,8208,5210,-10380,169,-4,20
32767,32767,2880,-54,-59,-156,24050,24448,-1118,83,-105,-131,8050,5472,-10196,148,3,22
32767,32767,2748,10,-53,-191,23962,24588,-1012,44,-80,-140,7986,5472,-9830,90,-17,8
32767,32767,2424,55,-52,-169,23786,24728,-1104,61,-70,-103,8156,5232,-9780,24,-50,-4
32767,32767,2514,23,-57,-192,23748,24548,-1174,42,-61,-86,8308,4978,-9930,21,-49,-3
32767,32767,2494,10,-53,-180,23868,24570,-1072,69,-75,-88,8382,4948,-10156,58,-31,6
32767,32767,2570,20,-59,-196,23882,24570,-1140,52,-76,-97,8234,5118,-10136,76,-17,3
32767,32767,2596,3,-61,-137,23916,24658,-1222,62,-77,-64,8188,5250,-9984,53,-15,-7
32767,32767,2452,-31,-52,-210,23946,24548,-1084,23,-61,-57,8184,5246,-9866,8,-25,-23
32767,32674,2516,7,-38,-194,23942,24686,-1086,42,-52,-49,8220,5080,-9744,-14,-32,-27
32767,32767,2238,33,-61,-136,23770,24646,-1078,26,-57,-39,8270,4934,-9882,11,-42,-24
32767,32767,2252,4,-61,-114,23614,24480,-1104,54,-66,-35,8316,4886,-10180,77,-36,-19
32767,32767,2240,-55,-60,-110,23870,24346,-1124,79,-94,-42,8380,5022,-10308,107,-23,-26
32767,32767,2444,-35,-55,-173,24162,24448,-1132,91,-89,-36,8364,5106,-10170,95,-5,-36
32767,32767,2682,-19,-46,-196,24240,24466,-1044,67,-52,-15,8336,5168,-9946,61,14,-47
32767,32767,2576,27,-43,-176,24086,24584,-910,37,-26,4,8204,5100,-9692,37,16,-43
32767,32767,2316,17,-38,-182,23722,24690,-844,25,-20,6,8182,4982,-9752,42,-1,-38
32767,32767,2310,58,-37,-125,23408,24458,-712,36,-46,0,8250,4912,-9958,68,-11,-31
32767,32767,2272,39,-45,-134,23558,24378,-860,62,-81,10,8394,5004,-10154,90,-8,-36
32767,32767,2318,-45,-38,-116,23944,24316,-898,81,-102,21,8530,5130,-10150,86,22,-38
32767,32767,2454,-35,-43,-112,24200,24494,-936,75,-86,26,8402,5200,-10006,55,60,-45
32767,32767,2384,33,-33,-78,24096,24610,-1026,56,-57,34,8146,5160,-9884,26,66,-49
32767,32767,2234,32,-42,-86,23908,24572,-1182,36,-47,29,8248,5034,-9962,12,46,-43
32767,32767,2164,-8,-35,-63,23964,24538,-1030,18,-53,15,8336,4962,-10104,32,40,-26
32767,32767,2432,-13,-53,-29,24134,24532,-842,8,-41,8,8476,5034,-10186,64,66,-18
32767,32767,2498,-14,-41,-50,24130,24596,-1060,6,-21,27,8422,5040,-10138,71,94,-23
32767,32767,2538,0,-35,-69,24208,24758,-864,-25,-3,47,8342,5002,-9980,52,110,-28
32767,32767,2320,51,-23,-82,24200,24930,-932,-66,33,71,8182,4996,-9676,11,95,-18
32767,32767,2194,84,-40,-77,23902,24900,-996,-82,50,81,8150,4876,-9722,11,69,-4
32767,32767,2252,42,-56,-47,23658,24772,-902,-104,23,63,8094,4850,-9946,54,57,12
32767,32767,2392,-31,-74,-23,23770,24694,-864,-91,-3,46,8250,4936,-10174,94,58,14
32767,32767,2804,-57,-67,-24,23820,24560,-886,-73,-23,42,8338,5066,-10278,94,78,-4
32767,32767,2926,-12,-48,-33,23846,24500,-1010,-21,-46,64,8358,5166,-10134,48,100,-27
32767,32767,2870,45,-13,-41,23804,24466,-1048,4,-53,80,8220,5140,-9924,-4,108,-32
32767,32767,2628,47,2,-38,24116,24714,-1170,10,-55,77,8154,4998,-9846,-23,97,-17
32767,32767,2396,15,3,-31,24254,24950,-1158,0,-39,91,8142,4884,-10004,0,71,1
32767,32767,2242,-41,-15,-28,24100,24814,-1128,-64,-12,77,8316,4864,-10062,29,63,14
32767,32767,2292,-62,-25,-12,23934,24726,-1040,-85,-6,59,8320,4910,-10164,23,80,9
32767,32767,2374,-34,-35,2,23910,24614,-1148,-94,-7,63,8252,5002,-10070,2,88,1
32767,32767,2350,4,-38,8,23924,24560,-1086,-25,-35,71,8152,5044,-9820,-18,78,-3
32767,32767,2358,15,-52,-1,24104,24812,-1064,4,-26,83,8062,5130,-9792,-38,51,-3
32767,32767,2334,-27,-73,-2,23966,24836,-1028,-26,-14,91,8168,5228,-10042,-48,27,6
32767,32767,2428,-114,-88,25,24016,24952,-922,-33,-18,73,8358,5172,-10290,-52,32,26
32767,32767,2660,-203,-94,47,24086,25036,-1096,-44,-18,75,8388,5222,-10476,-60,67,38
32767,32767,2944,-225,-83,65,23974,24866,-1114,-58,-9,89,8154,5134,-10348,-94,105,27
32767,32767,2874,-200,-56,58,23806,24746,-936,-62,-26,85,7990,4996,-10140,-119,84,7
32767,32767,2832,-71,-21,73,24188,24940,-1082,-61,-23,79,8324,4794,-10100,-107,46,-1
32767,32767,2712,23,-2,63,23984,24878,-1026,-57,-1,109,8478,4756,-10144,-61,47,6
32767,32767,2620,3,10,58,23894,24844,-974,-60,-10,103,8380,4786,-10140,-39,77,22
32767,32767,2426,-55,4,72,24020,25022,-1202,-37,-15,100,8144,4818,-10210,-34,78,34
32767,32767,2202,-117,-22,56,24028,25180,-1166,-85,-1,109,8068,4918,-10266,-23,50,37
32767,32767,2210,-154,-34,74,23774,25014,-996,-102,-1,113,8376,5086,-10298,-12,32,34
32767,32767,2366,-89,-37,114,24216,24992,-1244,-135,0,101,8448,5172,-10334,-23,64,24
32767,32767,2630,-43,-36,70,23998,24904,-1188,-125,27,134,8200,5152,-10306,-52,88,17
32767,32767,2586,-41,-37,104,23586,24656,-1118,-137,25,117,8160,5146,-10280,-80,82,16
32767,32767,2548,-60,-27,86,23892,24812,-1234,-110,-8,91,8138,5000,-10172,-92,63,25
32767,32767,2576,-81,-36,97,24158,24970,-1262,-84,-2,112,8202,4930,-10210,-77,57,39
32767,32767,2516,-93,-43,109,24032,24810,-1272,-94,16,112,8286,4984,-10312,-61,60,47
32767,32767,2394,-61,-43,86,23880,24878,-1204,-90,9,92,8276,5066,-10428,-51,67,45
32767,32767,2576,-56,-28,119,23958,24946,-1164,-104,24,86,8206,5078,-10364,-50,68,42
32767,32767,2654,-69,-45,96,23744,24814,-1076,-132,17,85,8166,5128,-10346,-69,58,33
32767,32767,2492,-65,-27,140,23938,24922,-1206,-111,6,82,8176,5132,-10388,-80,58,39
32767,32767,2552,-93,-35,108,24018,24928,-1106,-92,14,102,8150,5058,-10342,-82,47,47
32767,32767,2456,-103,-32,154,23920,24882,-1060,-126,17,91,8270,5016,-10440,-74,43,52
32767,32767,2516,-89,-32,184,23898,24874,-1088,-101,10,73,8212,5088,-10412,-83,57,39
32767,32767,2338,-132,-24,156,23884,24780,-1106,-133,10,57,8172,5162,-10388,-105,59,22
32767,32767,2578,-121,-35,100,23822,24762,-1128,-118,17,55,8078,5122,-10346,-126,51,13
32767,32767,2246,-103,-26,217,23620,24852,-1018,-123,3,49,8160,5132,-10450,-129,48,13
32767,32767,2496,-129,9,181,23960,24878,-1162,-118,5,48,8330,5002,-10548,-127,47,20
32767,32767,2376,-175,-25,186,23906,24856,-1164,-132,5,51,8360,4896,-10516,-124,62,10
32767,32767,2422,-163,-24,197,23718,24776,-1162,-152,6,10,8296,5002,-10536,-119,83,1
32767,32767,2332,-121,-16,169,23692,24786,-1134,-152,1,-8,8088,5002,-10508,-104,82,6
32767,32767,2308,-125,-12,186,23734,24622,-1094,-165,2,4,8046,4934,-10426,-87,65,12
32767,32767,2466,-164,-24,118,23638,24528,-1178,-134,2,1,8100,4914,-10468,-85,46,5
32767,32767,2264,-156,-33,140,23718,24682,-1214,-97,-16,-5,8214,4838,-10466,-82,39,-5
32767,32767,2472,-117,-48,182,23914,24810,-1288,-82,-27,-6,8218,4912,-10508,-66,50,-11
32767,32767,2490,-110,-20,215,24210,24962,-1196,-45,-36,-19,8266,4990,-10524,-52,60,-14
32767,32767,2774,-148,-22,178,24138,25054,-1150,-48,-33,-38,8098,5088,-10510,-62,48,-13
32767,32767,2394,-179,-36,156,24054,24970,-1214,-51,-39,-40,8054,5188,-10542,-79,36,-16
32767,32767,2604,-174,-24,136,24138,24826,-1106,-25,-54,-38,8086,5080,-10508,-103,29,-27
32767,32767,2396,-133,-19,177,24128,24818,-1098,-11,-64,-44,8160,4972,-10422,-106,27,-48
32767,32767,2412,-147,-1,191,24260,24876,-1048,14,-71,-42,8232,4856,-10526,-100,28,-66
32767,32767,2604,-164,-14,164,24226,24944,-1204,27,-76,-50,8204,4754,-10460,-110,36,-72
32767,32767,2514,-165,-11,185,24136,25012,-1226,44,-75,-61,8042,4742,-10572,-105,40,-69
32767,32767,2630,-183,-18,135,24016,25048,-1104,28,-85,-69,8068,4704,-10608,-77,23,-68
32767,32767,2494,-230,-30,113,24048,25004,-1004,31,-78,-59,8180,4780,-10574,-53,6,-82
32767,32767,2552,-250,-26,108,23970,24936,-934,12,-76,-50,8128,4680,-10478,-72,10,-95
32767,32767,2390,-215,-25,117,24118,24864,-1030,30,-78,-58,8202,4528,-10542,-64,6,-109
32767,32767,2456,-203,-1,142,23900,24804,-1086,33,-73,-65,8314,4544,-10688,-19,0,-110
32767,32767,2560,-169,10,119,23838,24650,-1094,39,-98,-79,8374,4650,-10656,17,11,-105
32767,32767,2470,-161,10,95,24032,24524,-1080,58,-118,-97,8402,4788,-10634,48,27,-90
32767,32767,2452,-180,8,70,23978,24736,-1012,71,-97,-74,8332,4932,-10598,57,37,-70
32767,32767,2466,-167,-10,41,23812,24768,-1052,36,-78,-74,8344,4926,-10690,58,28,-62
32767,32767,2530,-137,-19,28,23698,24784,-1110,38,-89,-86,8460,4924,-10626,62,29,-62
32767,32767,2562,-96,-20,23,23912,24830,-1052,22,-85,-98,8472,4888,-10704,50,33,-56
32767,32767,2554,-50,-20,16,23848,24598,-1016,-3,-82,-103,8432,4850,-10734,30,49,-41
32767,32767,2564,-36,-23,-4,23992,24568,-976,22,-78,-114,8248,4884,-10652,28,53,-23
32767,32767,2488,-49,-41,-27,23848,24600,-1060,7,-67,-122,8260,4922,-10596,35,49,-7
32767,32767,2504,-77,-50,-46,23760,24760,-1028,14,-64,-115,8164,4850,-10528,25,43,-1
32767,32767,2496,-75,-62,-55,23640,24770,-1022,21,-97,-110,8158,4738,-10462,14,44,-5
32767,32767,2554,-25,-59,-53,24144,24892,-1038,38,-115,-106,8120,4622,-10534,2,42,-8
32767,32767,2614,9,-57,-61,23932,24384,-1092,22,-104,-133,8170,4650,-10630,16,27,0
32767,32767,2476,-10,-56,-38,23924,24384,-1030,24,-126,-207,8360,4770,-10674,37,22,18
32767,32767,2698,-39,-64,-71,24038,24528,-1224,60,-107,-186,8358,4754,-10686,34,38,26
32767,32767,2652,-36,-63,-98,23734,24248,-932,80,-109,-168,8188,4638,-10538,3,50,15
32767,32767,2546,15,-63,-120,23852,24654,-990,170,-132,-172,8014,4518,-10452,-27,39,-2
32767,32767,2496,77,-59,-85,23682,24528,-1248,156,-136,-167,7984,4458,-10346,-24,8,-8
32767,32767,2394,37,-75,-109,23822,24824,-958,169,-153,-185,8110,4436,-10432,12,-18,1
32767,32767,2518,-43,-76,-158,24088,24938,-1258,137,-127,-142,8200,4430,-10540,41,-17,13
32767,32767,2534,-62,-75,-30,23734,24714,-1024,31,-83,-159,8116,4568,-10484,48,6,15
32767,32767,2424,-12,-93,-100,23602,25124,-1276,51,-81,-146,7986,4704,-10480,36,-5,-2
32767,32767,2432,3,-63,-127,23446,24856,-1338,2,-77,-100,8056,4736,-10370,27,-32,-9
32767,32767,2440,-2,-88,-114,23948,24612,-1066,52,-108,-96,8304,4676,-10496,19,-49,-15
32767,32767,2576,-52,-69,-101,23980,24698,-1418,43,-80,-104,8426,4602,-10598,24,-38,-7
32767,32767,2756,-78,-89,-111,23644,24516,-1418,47,-75,-91,8332,4584,-10692,19,-10,-5
32767,32767,2628,-56,-54,-64,23774,24452,-1402,70,-97,-111,8284,4826,-10706,27,-3,5
32767,32767,2714,-7,-53,-118,24024,24588,-1312,88,-104,-120,8164,4786,-10634,40,-7,22
32767,32767,2550,-65,-51,-235,24126,24706,-1240,69,-78,-109,8180,4718,-10352,39,-20,23
32767,32767,2500,-6,-59,-242,23894,24602,-1242,73,-57,-83,8322,4546,-10392,28,-31,18
32767,32767,2542,76,-86,-251,23714,24928,-1056,75,-56,-59,8236,4288,-10386,47,-20,23
32767,32767,2692,22,-82,-187,23804,24956,-1140,72,-34,-9,8200,4418,-10604,105,-20,27
32767,32767,2738,39,-96,-208,23880,24834,-1010,37,-38,-14,8180,4574,-10438,140,-16,39
32767,32767,2424,38,-86,-250,23922,24970,-1154,43,-39,-27,8114,4738,-10274,121,-17,29
32767,32767,2570,121,-68,-167,23540,24776,-1310,9,-33,-13,8078,4716,-10128,87,-21,9
32767,32767,2340,140,-74,-268,23692,24496,-1288,16,-67,-20,8054,4646,-10072,55,-41,-7
32767,32767,2410,-7,-54,-191,24074,24508,-1202,56,-80,-42,8322,4616,-10266,57,-50,-16
32767,32767,2520,-17,-84,-134,24072,24488,-1184,52,-62,-36,8380,4648,-10514,53,-14,-27
32767,32767,2534,-72,-47,-90,23830,24530,-1282,99,-63,-23,8294,4778,-10712,30,23,-36
32767,32767,2452,-30,-42,-160,23838,24788,-1144,74,-66,-18,8288,4862,-10574,5,26,-45
32767,32767,2370,32,-23,-116,23912,24894,-1164,53,-38,5,8422,4748,-10428,-6,24,-44
32767,32767,2372,26,-20,-133,23596,24828,-1198,40,-30,9,8534,4502,-10430,10,30,-34
32767,32767,2244,-16,-26,-161,23680,24724,-1164,21,-44,-2,8470,4296,-10436,31,62,-27
32767,32767,2270,15,-47,-153,23798,24620,-1224,37,-42,-1,8160,4252,-10362,49,75,-27
32767,32767,2210,47,-64,-140,23906,24586,-1198,41,-34,14,7948,4248,-10170,81,52,-28
32767,32767,2384,35,-62,-160,23736,24686,-1158,63,-26,27,8024,4474,-10298,128,13,-32
32767,32767,2406,76,-58,-65,23816,24938,-1326,57,-37,39,8224,4680,-10332,133,15,-30
32767,32767,2538,32,-50,-67,23958,24980,-1226,46,-35,48,8320,4884,-10412,102,32,-33
32767,32767,2572,-37,-35,-37,23958,25016,-1262,22,-25,46,8394,5052,-10534,66,54,-37
32767,32767,2568,-2,-38,-9,24004,24918,-1256,16,-22,51,8442,4976,-10546,24,75,-44
32767,32767,2550,-19,-22,-31,23938,24888,-1242,20,-22,51,8390,4820,-10598,-15,95,-51
32767,32767,2534,-30,-13,-45,24096,24820,-1074,32,-26,54,8334,4602,-10498,-53,110,-53
32767,32767,2460,24,-8,-52,24250,24922,-1060,27,-33,61,8392,4402,-10400,-69,107,-47
32767,32767,2266,81,-13,-49,24304,25080,-996,41,-33,60,8328,4174,-10292,-22,97,-31
32767,32767,2406,66,-34,-45,24222,25084,-1086,38,-33,63,8230,4098,-10364,9,97,-32
32767,32767,2442,54,-48,-45,23880,25030,-912,31,-43,56,8036,4182,-10428,41,94,-40
32767,32767,2466,-9,-58,-33,23912,25046,-934,29,-58,57,8124,4278,-10514,76,79,-39
32767,32767,2510,-57,-57,-32,24174,24998,-1010,9,-55,108,8230,4430,-10722,100,70,-31
32767,32767,2512,-22,-51,-24,24046,25118,-1066,4,-60,116,8320,4550,-10562,91,89,-29
32767,32767,2534,28,-31,-30,24178,25284,-1290,-16,-49,122,8268,4570,-10496,61,102,-32
32767,32767,2536,63,-36,-24,24212,25282,-1158,-71,-41,132,8220,4496,-10608,28,99,-38
32767,32767,2410,15,-32,-7,24278,25226,-1196,-124,-19,112,8342,4344,-10732,5,92,-40
32767,32767,2502,-9,-29,11,23990,25008,-1128,-135,-3,112,8314,4438,-10768,2,103,-35
32767,32767,2428,-38,-26,0,23822,24774,-1048,-140,-12,114,8258,4542,-10824,-7,111,-22
32767,32767,2454,-36,-26,11,23954,24828,-1056,-103,-21,116,8140,4614,-10648,-10,111,-6
32767,32767,2494,-13,-31,16,24044,24982,-1144,-109,-15,112,8218,4540,-10744,-11,99,7
32767,32767,2500,20,-32,19,23974,25160,-1188,-106,-10,122,8408,4440,-10674,-16,91,16
32767,32767,2578,26,-22,40,23960,25146,-980,-136,-13,123,8486,4390,-10612,-20,99,36
32767,32767,2600,3,-28,53,24168,25216,-1156,-129,0,114,8310,4420,-10562,-3,104,62
32767,32767,2738,1,-27,62,23956,25194,-1080,-145,10,116,8120,4654,-10706,43,91,93
32767,32767,2700,-24,-42,52,23894,25134,-1124,-142,4,104,8026,4774,-10678,55,68,105
32767,32767,2930,-32,-48,36,24102,25238,-1176,-123,-6,102,8246,4798,-10584,15,40,86
32767,32767,2792,5,-29,63,24146,25194,-1312,-129,17,119,8362,4780,-10528,-51,38,63
32767,32767,2836,61,-7,71,24118,25292,-1232,-156,8,104,8356,4698,-10450,-98,50,49
32767,32767,2736,52,7,151,23802,25378,-1186,-176,18,109,8226,4686,-10456,-105,56,46
32767,32767,2562,-10,21,150,23946,25206,-1246,-179,0,98,8222,4770,-10634,-114,53,41
32767,32767,2580,-111,18,112,24084,25264,-1366,-148,8,96,8192,4832,-10632,-140,41,36
32767,32767,2218,-163,-9,142,23624,25252,-1420,-165,16,95,8192,4810,-10742,-167,41,30
32767,32767,2416,-104,-2,147,23702,25240,-1482,-127,5,98,8182,4624,-10746,-201,49,16
32767,32767,2668,-43,-3,192,23974,25116,-1434,-189,1,86,8146,4490,-10672,-204,53,0
32767,32767,2524,-25,-2,236,23958,24950,-1510,-160,24,74,8116,4302,-10656,-194,41,3
32767,32767,2418,-97,-3,232,23804,24818,-1602,-163,21,60,8162,4220,-10662,-162,24,15
32767,32767,2522,-148,8,226,23668,24762,-1436,-136,18,51,8070,4226,-10728,-112,13,28
32767,32767,2570,-116,-21,215,23964,24760,-1410,-96,12,52,8060,4496,-10784,-76,10,32
32767,32767,2546,-133,-1,222,24040,24932,-1306,-86,22,55,7972,4684,-10892,-69,4,34
32767,32767,2720,-154,-4,160,23772,25074,-1272,-95,23,34,8142,4828,-10880,-80,-11,37
32767,32767,2314,-186,-15,176,23714,25138,-1128,-88,11,25,8324,4774,-10810,-117,-4,37
32767,32767,2494,-180,-2,173,23950,25114,-1186,-102,3,24,8262,4688,-10776,-157,12,28
32767,32767,2298,-131,4,216,24012,25038,-1188,-100,10,28,8166,4664,-10898,-173,11,29
32767,32767,2414,-141,-11,193,23960,24894,-1216,-73,11,23,8110,4644,-10860,-178,9,38
32767,32767,2440,-191,-2,220,23862,24930,-1178,-62,-9,8,8162,4600,-11010,-177,10,40
32767,32767,2564,-202,-18,172,23848,24996,-1234,-39,-25,-20,8012,4628,-10958,-182,13,37
32767,32767,2310,-198,-11,179,23964,25188,-1128,-35,-38,-25,8000,4484,-10910,-199,12,29
32767,32767,2436,-167,14,212,24052,25126,-1162,-52,-33,-15,8128,4422,-10976,-176,-12,20
32767,32767,2482,-148,2,194,24006,25054,-1220,-67,-27,-22,8404,4346,-10952,-133,5,9
32767,32767,2400,-216,21,202,23814,24998,-1168,-59,-36,-35,8308,4274,-10928,-125,35,-1
32767,32767,2120,-230,-9,163,23780,24964,-1216,-36,-59,-42,8094,4290,-10910,-109,42,-3
32767,32767,2084,-234,21,141,23956,24908,-1296,-7,-72,-44,8148,4330,-10908,-84,24,4
32767,32767,2036,-195,4,158,24240,25106,-1332,10,-74,-47,8328,4280,-10988,-55,17,-7
32767,32767,2096,-184,-12,89,24310,25250,-1428,8,-55,-48,8428,4316,-10878,-36,26,-27
32767,32767,2106,-157,-14,145,24184,25358,-1264,-35,-30,-45,8314,4394,-10932,-30,43,-37
32767,32767,2284,-148,-29,137,23900,25156,-1214,-50,-16,-52,8180,4422,-10822,-28,51,-36
32767,32767,2278,-169,-46,107,23800,25012,-1140,-54,-47,-70,8134,4526,-10860,-4,41,-40
32767,32767,2344,-185,-44,91,23940,24848,-1142,-20,-60,-68,8122,4588,-10812,-15,33,-48
32767,32767,2502,-166,-36,92,23782,24840,-1188,8,-67,-55,8120,4516,-10800,-30,32,-51
32767,32767,2432,-145,-29,85,23996,24948,-1134,28,-89,-56,8112,4532,-10864,-38,33,-44
32767,32767,2436,-138,-16,98,24274,25078,-1168,17,-80,-63,8226,4502,-10958,-32,25,-39
32767,32767,2530,-113,-20,97,24028,24986,-1154,-18,-67,-77,8306,4548,-10964,-11,21,-45
32767,32767,2582,-127,-12,83,23748,24712,-970,-4,-88,-118,8312,4546,-10844,-12,28,-54
32767,32767,2532,-136,-15,55,23950,24658,-1140,40,-112,-118,8204,4438,-10824,-32,33,-58
32767,32767,2464,-118,-25,29,23916,24610,-1038,91,-129,-99,8144,4306,-10830,-27,24,-43
32767,32767,2436,-116,-28,19,23838,24606,-954,102,-150,-138,8160,4256,-10898,10,11,-32
32767,32767,2506,-130,-23,26,24224,25066,-1090,113,-144,-161,8324,4326,-10948,45,3,-40
32767,32767,2504,-115,-13,18,23882,24744,-1116,84,-119,-138,8406,4478,-11026,54,16,-55
32767,32767,2500,-95,-5,1,23994,24728,-976,93,-138,-200,8400,4530,-10870,34,30,-56
32767,32767,2384,-102,-9,-12,24188,24838,-1018,80,-136,-200,8208,4514,-10750,10,45,-44
32767,32767,2274,-110,-27,-32,23804,24732,-844,41,-98,-186,8032,4370,-10646,1,33,-36
32767,32767,2028,-142,-48,-49,23686,24882,-1186,70,-98,-161,8124,4300,-10740,19,9,-31
32767,32767,2108,-155,-67,-28,23506,24870,-998,41,-98,-169,8366,4334,-10882,41,-2,-24
32767,32767,2436,-86,-61,2,23826,25108,-1162,83,-123,-151,8464,4438,-11034,45,41,-21
32767,32767,2646,-15,-41,-19,23866,24908,-1356,62,-112,-141,8286,4388,-10878,20,68,-28
32767,32767,2694,-10,-40,-47,23802,24638,-1280,47,-134,-187,8078,4300,-10618,-3,49,-36
32767,32767,2604,-66,-34,-62,23872,24742,-1438,63,-132,-205,8130,4244,-10628,-2,22,-19
32767,32767,2480,-103,-47,-66,23982,24818,-1320,53,-125,-165,8206,4174,-10708,39,10,9
32767,32767,2422,-118,-64,-109,23808,24602,-1250,31,-106,-181,8276,4170,-10952,91,4,24
32767,32767,2438,-89,-65,-79,23782,24864,-1248,59,-103,-188,8310,4320,-11004,121,6,17
32767,32767,2606,-3,-53,-60,23738,24794,-1368,70,-103,-150,8316,4420,-11062,112,18,4
32767,32767,2828,72,-45,-91,23838,24784,-1148,80,-107,-141,8224,4368,-10718,80,18,13
32767,32767,2636,0,-55,-152,23842,24766,-1370,83,-86,-132,8016,4286,-10670,68,8,27
32767,32767,2570,-5,-47,-135,23676,25082,-1428,63,-74,-112,8006,4316,-10708,95,-21,41
32767,32767,2522,15,-65,-268,23586,25126,-1396,61,-70,-88,8250,4276,-10776,133,-48,54
32767,32767,2272,7,-95,-267,23612,24992,-1442,44,-83,-82,8296,4436,-10704,139,-45,53
32767,32767,2604,-2,-100,-173,23976,24988,-1474,48,-94,-94,8168,4512,-10526,96,-20,42
32767,32767,2346,23,-100,-245,23984,24838,-1494,30,-69,-86,7910,4478,-10344,40,-35,23
32767,32767,2478,28,-88,-192,23914,24560,-1460,3,-62,-95,7866,4340,-10480,26,-69,13
32767,32767,2344,47,-100,-211,23798,24566,-1494,25,-43,-91,8256,4304,-10718,33,-90,12
32767,32767,2628,-66,-57,-147,23900,24736,-1332,76,-63,-43,8460,4396,-10872,42,-59,13
32767,32767,2620,-31,-60,-215,23992,24862,-1306,73,-31,-18,8358,4464,-10864,42,-27,12
32767,32767,2228,-18,-45,-195,23774,24858,-1232,50,-18,-20,8314,4446,-10756,29,-17,12
32767,32767,2222,-3,-36,-185,23622,24946,-1230,42,-17,-23,8288,4256,-10608,20,-32,5
32767,32767,2438,45,-39,-206,23536,24934,-1514,61,-19,-6,8302,4108,-10568,26,-35,-1
32767,32767,2252,72,-58,-224,23622,24906,-1368,62,-42,-3,8154,3972,-10540,61,-37,3
32767,32767,2248,-49,-65,-227,23950,24998,-1396,36,-37,-4,8224,4046,-10598,106,-44,3
32767,32767,2220,-56,-70,-197,23924,24882,-1400,18,-12,6,8284,4232,-10528,132,-39,0
32767,32767,2446,12,-64,-183,23912,24648,-1402,1,-15,17,8190,4352,-10508,121,-19,-7
32767,32767,2118,36,-66,-200,24152,24638,-1330,21,-15,12,8098,4400,-10510,95,-18,-21
32767,32767,2100,35,-45,-197,24130,24746,-1326,9,8,14,8262,4474,-10600,71,-31,-33
32767,32767,2244,37,-33,-146,23874,24842,-1270,12,24,30,8474,4466,-10758,66,-19,-36
32767,32767,2398,17,-43,-67,23854,25004,-1132,16,11,37,8480,4448,-10788,59,23,-39
32767,32767,2390,-47,-20,-95,23988,24982,-990,24,-8,28,8306,4430,-10724,37,63,-44
32767,32767,2172,-19,-24,-95,23898,24932,-948,26,-16,28,8262,4372,-10530,18,58,-43
32767,32767,2116,23,-17,-135,23836,24890,-1034,10,-24,41,8326,4132,-10486,22,37,-41
32767,32767,1902,51,-34,-107,23986,24800,-1034,9,-41,54,8478,3898,-10660,62,42,-39
32767,32767,2142,48,-47,-66,24116,24970,-1104,-9,-24,56,8316,3960,-10514,80,65,-44
32767,32767,2232,1,-51,-81,23856,24856,-1194,-38,-8,55,8166,4072,-10436,78,77,-50
32767,32767,2188,-3,-41,-99,23804,24810,-1244,-48,-6,49,8066,4170,-10376,83,60,-51
32767,32767,2138,2,-47,-44,23902,24708,-1254,-50,-9,59,8086,4312,-10520,99,42,-37
32767,32767,2216,11,-39,-18,23816,24688,-1216,-38,-7,58,8298,4326,-10730,114,51,-31
32767,32767,2256,38,-35,-13,23910,24882,-1230,-17,-15,65,8374,4408,-10752,103,82,-47
32767,32767,2382,33,-33,-28,24010,25020,-1218,-34,-5,63,8376,4420,-10722,43,113,-62
32767,32767,2318,-26,-26,-35,23752,25158,-1328,-41,6,62,8360,4266,-10572,-25,121,-66
32767,32767,2262,-30,-22,-27,23782,25176,-1300,-66,0,63,8396,4094,-10620,-33,113,-51
32767,32767,2250,-22,-22,-19,23992,25216,-1324,-57,-11,87,8338,4010,-10584,-6,111,-34
32767,32767,2194,0,-26,-17,24020,25120,-1312,-89,2,88,8248,4074,-10642,15,114,-28
32767,32767,2172,17,-39,-20,24052,25234,-1362,-78,12,105,8226,4192,-10674,17,104,-24
32767,32767,2224,7,-61,-12,24048,25250,-1450,-99,20,120,8226,4214,-10678,21,93,-14
32767,32767,2378,-60,-75,6,23854,25232,-1410,-106,25,114,8274,4224,-10800,38,89,2
32767,32767,2582,-115,-86,22,23832,25202,-1418,-119,13,108,8246,4218,-10668,39,105,21
32767,32767,2636,-88,-76,29,23914,24976,-1374,-126,9,118,8186,4276,-10580,38,88,16
32767,32767,2806,36,-45,25,24004,24940,-1346,-98,-4,119,8254,4292,-10486,27,72,10
32767,32767,2772,50,-27,22,24092,25126,-1504,-64,7,145,8222,4328,-10530,8,65,11
32767,32767,2808,-24,-25,22,23918,25360,-1504,-89,18,150,8152,4330,-10552,-17,69,17
32767,32767,2516,-103,-44,17,23660,25434,-1354,-99,14,142,8146,4286,-10628,-40,65,22
32767,32767,2366,-128,-45,18,23806,25438,-1500,-146,14,135,8246,4258,-10720,-60,55,20
32767,32767,2428,-85,-35,50,23840,25180,-1422,-177,27,149,8380,4212,-10736,-72,52,17
32767,32767,2420,-54,-32,59,23852,24968,-1378,-179,29,148,8296,4226,-10790,-81,62,12
32767,32767,2492,-61,-21,90,24076,24894,-1594,-150,27,164,8186,4236,-10798,-90,70,19
32767,32767,2504,-81,-33,65,23954,25106,-1456,-114,42,169,8096,4216,-10796,-81,61,31
32767,32767,2554,-95,-38,80,23870,25310,-1692,-99,31,162,8184,4090,-10746,-68,51,43
32767,32767,2448,-108,-46,89,23680,25350,-1348,-128,19,141,8272,4088,-10856,-61,43,40
32767,32767,2458,-113,-34,97,23984,25192,-1612,-181,11,115,8304,4190,-10842,-55,49,39
32767,32767,2512,-96,-37,87,23894,25056,-1348,-193,22,120,8220,4358,-10884,-57,49,38
32767,32767,2462,-97,-19,131,23748,24952,-1490,-188,33,124,8182,4512,-10906,-72,42,44
32767,32767,2414,-111,-25,115,23488,25028,-1636,-115,34,146,8276,4538,-10924,-95,27,48
32767,32767,2326,-153,-23,152,23364,25050,-1608,-89,9,117,8440,4448,-11030,-131,42,46
32767,32767,2500,-174,-35,199,23630,25122,-1682,-99,-17,75,8396,4376,-10946,-165,70,46
32767,32767,2550,-146,-31,169,23776,24966,-1680,-117,4,64,8276,4306,-10876,-184,75,51
32767,32767,2364,-109,-28,171,23494,24730,-1642,-156,11,43,8150,4232,-10912,-186,67,58
32767,32767,2474,-76,-3,173,23478,24554,-1476,-136,7,21,8020,4234,-10982,-170,51,67
32767,32767,2472,-79,-18,139,23598,24560,-1534,-89,-5,24,8102,4218,-10964,-147,35,69
32767,32767,2442,-144,-31,192,23574,24682,-1524,-36,-11,22,8156,4262,-10930,-137,34,57
32767,32767,2504,-203,-31,205,23638,25034,-1328,-7,-36,-6,8258,4310,-10968,-145,38,39
32767,32767,2342,-214,-12,175,23634,25238,-1440,-21,-40,-22,8230,4258,-10888,-171,40,40
32767,32767,2398,-151,-16,204,23546,25318,-1426,-29,-41,-15,8236,4314,-10870,-170,40,48
32767,32767,2366,-96,1,234,23742,25244,-1514,-47,-45,-10,8244,4388,-11054,-158,39,55
32767,32767,2294,-113,14,257,24018,25226,-1548,-49,-41,-14,8296,4488,-11092,-144,36,57
32767,32767,2472,-183,-1,244,23912,25146,-1534,-80,-16,-29,8440,4458,-11228,-148,44,52
32767,32767,2444,-228,-23,205,23642,24980,-1450,-72,-15,-37,8362,4424,-11170,-184,61,39
32767,32767,2278,-250,-50,178,23734,24920,-1470,-40,-41,-48,8078,4304,-10980,-220,74,30
32767,32767,2454,-212,-26,142,23818,25054,-1480,-13,-57,-36,7874,4176,-10814,-223,53,25
32767,32767,2376,-116,-36,212,23932,25188,-1514,6,-70,-41,7796,4022,-10978,-190,24,29
32767,32767,2264,-146,3,228,24044,25256,-1338,-1,-75,-63,8184,4114,-11254,-103,-2,21
32767,32767,2566,-188,-28,212,24046,25312,-1510,-39,-58,-66,8440,4204,-11408,-76,31,7
32767,32767,2526,-249,-15,150,23940,25046,-1462,-43,-56,-58,8300,4256,-11122,-100,65,-9
32767,32767,2274,-188,-7,158,23886,24838,-1420,-6,-74,-82,8216,4124,-11034,-125,62,-21
32767,32767,2230,-139,-19,99,23910,24850,-1422,35,-96,-105,8140,3872,-11000,-114,43,-25
32767,32767,2266,-123,-25,107,23906,24806,-1298,87,-113,-113,8088,3762,-11026,-78,34,-35
32767,32767,2328,-120,-31,122,23902,24996,-1348,125,-136,-120,8130,3840,-11232,-26,24,-40
32767,32767,2390,-110,-30,105,24062,25022,-1426,152,-156,-129,8204,3990,-11234,24,16,-41
32767,32767,2530,-107,-28,81,24168,25200,-1150,121,-158,-136,8160,4234,-11266,43,21,-50
32767,32767,2582,-136,-40,50,23934,25186,-1220,55,-125,-140,8044,4272,-11016,19,23,-62
32767,32767,2568,-120,-26,36,23726,25032,-1096,-36,-120,-185,8146,4184,-10978,16,9,-73
32767,32767,2524,-102,-9,34,23842,24926,-1300,2,-106,-125,8218,4164,-11058,26,7,-74
32767,32767,2416,-115,4,34,23662,24524,-1206,6,-97,-132,8224,4226,-11090,23,17,-63
32767,32767,2244,-135,-1,33,23644,24662,-1186,89,-142,-157,8174,4208,-11148,7,22,-57
32767,32767,2192,-142,-1,42,23812,24928,-1444,111,-142,-145,8332,4188,-11180,-1,9,-64
32767,32767,2296,-101,-2,53,23874,24748,-1364,66,-147,-158,8496,4158,-11072,-11,14,-76
32767,32767,2348,-63,-1,48,24052,24950,-1278,64,-150,-198,8446,4054,-11156,-26,42,-88
32767,32767,2436,-61,2,43,23912,24978,-1468,32,-125,-199,8202,4058,-11144,-14,52,-79
32767,32767,2484,-80,-3,17,23720,24466,-1168,25,-145,-225,8160,4038,-11028,13,36,-61
32767,32767,2444,-114,-8,2,23940,24518,-1258,91,-157,-246,8194,3974,-10938,32,15,-52
32767,32767,2280,-94,-14,-11,23826,24690,-1288,115,-136,-211,8306,3970,-10968,54,-4,-54
32767,32767,2298,-87,-20,-23,23666,24896,-1204,117,-122,-189,8430,4086,-11280,91,0,-48
32767,32767,2518,-93,-31,-16,23612,25354,-1372,131,-114,-174,8482,4242,-11384,115,27,-28
32767,32767,2458,-98,-34,-50,23428,25436,-1398,56,-104,-173,8366,4434,-11262,92,57,-15
32767,32767,2596,-38,-43,-61,23666,25358,-1558,22,-115,-137,8228,4210,-11170,59,46,-4
32767,32767,2564,69,-45,-106,23810,25016,-1626,-30,-89,-132,8262,3986,-11018,58,29,1
32767,32767,2692,93,-48,-101,23742,24930,-1752,8,-74,-109,8150,3922,-10844,68,22,4
32767,32767,2606,51,-61,-138,23712,24818,-1774,21,-81,-99,8060,4022,-10660,75,4,9
32767,32767,2332,32,-83,-201,23820,24948,-1712,39,-89,-107,7988,3964,-10638,57,-24,14
32767,32767,2416,-50,-75,-228,23964,25164,-1730,7,-71,-101,8044,3958,-10768,41,-43,4
32767,32767,2614,-15,-69,-156,23776,24958,-1666,-21,-35,-59,8216,3986,-10950,55,-54,5
32767,32767,2582,6,-70,-181,23624,24874,-1662,-2,-37,-37,8398,4062,-11184,64,-44,4
32767,32767,2514,-36,-49,-104,23708,24964,-1606,34,-49,-21,8356,4204,-11146,40,-20,4
32767,32767,2882,53,-44,-90,23772,24926,-1708,58,-50,-33,8248,4084,-10964,-4,-12,0
32767,32767,2408,-11,-28,-236,23678,24884,-1690,56,-54,-56,8148,3926,-10748,-11,-30,0
32767,32767,2420,-32,-52,-222,23918,24850,-1584,46,-65,-51,8260,3856,-10778,30,-60,9
32767,32767,2230,-21,-91,-178,23966,24734,-1476,46,-47,-27,8276,3878,-10886,78,-63,25
32767,32767,2342,-64,-72,-249,23688,24624,-1382,67,-39,-15,8292,3852,-10856,106,-55,35
32767,32767,2258,6,-85,-252,23560,24642,-1208,98,-63,-25,8088,3904,-10798,105,-45,28
32767,32767,2452,106,-86,-239,23670,24806,-1280,132,-80,-29,7894,3938,-10658,88,-55,14
32767,32767,2248,59,-78,-281,23566,25002,-1258,140,-75,-8,8218,4046,-10740,100,-104,6
32767,32767,2160,42,-91,-249,23674,25038,-1242,95,-62,16,8396,4088,-10744,101,-90,6
32767,32767,2254,-84,-71,-248,23852,25044,-1328,20,-45,24,8352,4122,-10898,61,-52,-4
32767,32767,2356,-52,-57,-205,23786,24744,-1448,-50,-19,12,8158,4170,-10828,10,-28,-23
32767,32767,2054,-23,-39,-120,23770,24526,-1290,-71,-15,-1,8268,4196,-10906,-15,-36,-32
32767,32767,2052,20,2,-163,23730,24320,-1334,-41,-16,-9,8524,4180,-10958,-6,-37,-23
32767,32767,2036,55,-24,-95,23650,24396,-1288,16,-20,-13,8684,4032,-11010,-7,0,-20
32767,32767,1902,-71,-30,-122,23676,24672,-1290,54,-31,10,8560,3868,-10824,-36,38,-26
32767,32767,1870,-121,-45,-131,23770,25004,-1298,69,-29,31,8240,3634,-10674,-51,50,-42
32767,32767,1810,-41,-47,-90,23834,25286,-1380,46,-31,26,8186,3596,-10854,17,12,-43
32767,32767,1998,14,-39,-32,23852,25340,-1434,5,-31,21,8424,3820,-11044,89,11,-21
32767,32767,2172,-4,-28,-47,23962,25126,-1518,-19,-25,23,8592,4088,-11144,117,50,0
32767,32767,2212,-44,-47,-32,23882,25036,-1498,-31,-12,25,8490,4210,-11056,102,87,-5
32767,32767,2062,-73,-43,-55,23770,25018,-1512,-46,6,44,8490,4172,-10794,61,91,-21
32767,32767,2046,-17,-50,-61,23830,25010,-1468,-62,21,66,8472,4018,-10748,25,96,-27
32767,32767,2180,73,-53,-60,23816,25116,-1504,-63,31,78,8320,3936,-10748,19,106,-16
32767,32767,2258,95,-64,-51,23578,25210,-1486,-62,23,83,8174,3882,-10838,37,108,6
32767,32767,2364,46,-67,-40,23934,25290,-1612,-46,11,106,8102,3876,-10916,69,103,19
32767,32767,2464,59,-58,-33,23996,25208,-1548,-69,16,111,8066,3880,-10700,63,100,0
32767,32767,2530,121,-40,-47,24052,25252,-1580,-89,28,126,8156,3812,-10556,35,89,-24
32767,32767,2424,101,-27,-47,23910,25208,-1508,-100,27,148,8208,3806,-10496,10,76,-33
32767,32767,2354,20,-24,-36,23854,25224,-1484,-85,23,146,8224,3726,-10638,5,72,-21
32767,32767,2252,-54,-31,-14,23900,25322,-1460,-89,8,155,8200,3824,-10760,21,69,-8
32767,32767,2282,-80,-30,7,24088,25298,-1510,-94,18,157,8166,3988,-10990,36,63,-5
32767,32767,2246,-47,-33,13,23908,25266,-1500,-102,27,166,8236,4050,-10970,30,55,-12
32767,32767,2404,-15,-34,14,23604,25144,-1448,-125,30,161,8360,3984,-10886,-21,65,-27
32767,32767,2520,13,-36,11,23894,25130,-1570,-134,10,144,8198,3812,-10802,-39,74,-32
32767,32767,2504,-15,-39,12,23962,25108,-1452,-103,27,157,8214,3722,-10854,-21,64,-19
32767,32767,2488,-93,-39,16,23816,24962,-1474,-139,37,140,8236,3778,-10992,16,55,5
32767,32767,2370,-105,-31,19,23596,24934,-1596,-64,24,139,8232,3902,-11006,42,61,14
32767,32767,2314,-49,-22,16,23428,24772,-1266,-93,-8,106,8180,4066,-10946,38,67,16
32767,32767,2254,-7,-23,15,23892,24940,-1526,-56,-11,91,8236,4058,-10866,1,64,15
32767,32767,2206,-24,-31,14,23680,24868,-1372,-67,-7,110,8200,4006,-10838,-48,53,10
32767,32767,2208,-72,-42,28,23824,24926,-1430,-72,-3,87,8348,3890,-11040,-65,47,8
32767,32767,2182,-129,-44,64,23778,25110,-1390,-52,-1,88,8420,3872,-11102,-52,62,11
32767,32767,2254,-185,-38,99,23666,25112,-1376,-77,4,86,8392,4038,-11246,-53,84,9
32767,32767,2502,-182,-10,122,23646,25206,-1426,-71,-7,75,8432,4144,-11104,-74,90,11
32767,32767,2400,-103,-12,128,23790,25266,-1472,-89,7,84,8398,4096,-11038,-106,88,17
32767,32767,2186,-68,-11,112,23848,25166,-1560,-126,8,73,8374,4012,-10988,-118,83,27
32767,32767,2300,-64,4,152,23786,25262,-1642,-106,13,68,8380,3986,-11046,-107,76,40
32767,32767,2358,-108,-20,173,23586,25138,-1542,-141,4,57,8312,3952,-11128,-87,76,47
32767,32767,2418,-155,-6,193,23854,25292,-1602,-119,-8,46,8212,4088,-11122,-80,76,53
32767,32767,2414,-151,-21,193,23760,25404,-1608,-95,3,70,8208,4176,-11056,-100,81,54
32767,32767,2320,-126,5,202,23706,25414,-1540,-104,6,73,8180,4142,-11080,-119,68,58
32767,32767,2488,-110,-4,196,23884,25582,-1944,-98,17,69,8284,4138,-11068,-111,62,50
32767,32767,2550,-118,-13,202,23628,25620,-1812,-180,41,61,8306,4134,-11082,-122,69,43
32767,32767,2350,-150,-15,211,23704,25552,-2064,-192,45,40,8242,4032,-11184,-150,84,47
32767,32767,2364,-153,-15,164,23568,25258,-1914,-172,30,45,8198,3978,-11178,-158,77,51
32767,32767,2154,-117,-19,233,23516,24668,-1804,-167,-4,11,8338,3964,-11314,-131,70,59
32767,32767,2440,-112,-3,198,23888,24696,-1716,-88,-32,-13,8446,3804,-11350,-110,71,60
32767,32767,2542,-116,-43,163,23884,24774,-1764,-42,-21,6,8140,3838,-11158,-108,97,41
32767,32767,2474,-105,-16,194,23578,24856,-1662,9,-20,7,7920,3726,-11006,-116,74,36
32767,32767,2456,-75,-32,113,23714,25274,-1610,38,-39,5,7986,3744,-10990,-88,27,46
32767,32767,2328,-83,-24,125,23770,25410,-1404,-14,-18,10,8180,3782,-11020,-29,3,57
32767,32767,2460,-109,-36,110,23512,25406,-1480,-44,-24,-7,8150,3978,-11124,-1,13,49
32767,32767,2472,-136,-25,140,23530,25252,-1472,-62,-37,-25,8138,4170,-11234,-16,19,33
32767,32767,2496,-144,-28,112,23636,25064,-1458,-54,-52,-33,8102,4254,-11186,-67,7,17
32767,32767,2450,-138,-7,123,23706,24992,-1522,-35,-68,-37,8192,4232,-11112,-112,-7,11
32767,32767,2356,-136,-22,144,23918,25102,-1508,-9,-84,-33,8308,4120,-11284,-127,-6,22
32767,32767,2326,-158,-12,124,24016,25264,-1584,-16,-63,-12,8294,4018,-11372,-121,6,22
32767,32767,2390,-156,-26,145,23900,25192,-1780,-20,-56,-6,8056,3996,-11366,-125,15,8
32767,32767,2322,-177,2,191,23844,25186,-1730,-20,-72,-42,7938,3994,-11300,-135,4,-7
32767,32767,2228,-178,5,137,23866,25196,-1816,-3,-80,-64,8084,3934,-11290,-136,-15,-12
32767,32767,2212,-142,19,173,23752,25232,-1638,16,-86,-64,8168,3932,-11276,-112,-19,-15
32767,32767,2212,-121,19,162,23770,25290,-1704,9,-80,-58,8268,3940,-11336,-99,-13,-18
32767,32767,1928,-211,-7,101,23706,25234,-1746,10,-72,-46,8386,3846,-11444,-86,-11,-15
32767,32767,1924,-306,-13,122,23668,25174,-1704,-1,-72,-55,8716,3892,-11772,-38,23,-4
32767,32767,2174,-293,-11,136,23616,25062,-1710,16,-84,-66,8618,3898,-11652,-27,61,-5
32767,32767,2288,-199,-38,93,23718,24956,-1620,30,-107,-77,8338,3922,-11340,-36,86,-20
32767,32767,2218,-156,-10,82,23818,25022,-1646,57,-121,-81,8086,3932,-11146,-30,61,-25
32767,32767,2092,-71,-23,46,23926,25004,-1514,69,-127,-89,8226,3784,-11036,0,26,-14
32767,32767,2120,-72,-30,46,23994,25028,-1536,81,-127,-102,8286,3684,-11134,31,22,-2
32767,32767,2316,-97,-42,30,23868,24874,-1500,90,-137,-132,8128,3660,-11150,45,42,-4
32767,32767,2280,-103,-46,34,24098,24924,-1312,101,-163,-175,7896,3860,-11078,55,41,-17
32767,32767,2356,-104,-38,45,24264,25042,-1284,148,-160,-156,8060,4200,-11206,78,-4,-31
32767,32767,2408,-88,-23,47,24142,25042,-1244,128,-146,-138,8492,4314,-11270,56,-10,-29
32767,32767,2568,-105,-12,25,23938,25328,-1086,114,-146,-144,8568,4200,-11182,15,30,-23
32767,32767,2524,-126,-10,15,23892,25380,-1130,82,-151,-147,8322,3966,-11064,-37,63,-26
32767,32767,2462,-105,-2,11,23854,25236,-1206,73,-165,-162,8140,3822,-11096,-63,42,-33
32767,32767,2280,-88,3,11,23830,25242,-1232,76,-182,-178,8146,3754,-11274,-31,-4,-16
32767,32767,2220,-95,7,15,23996,25106,-1248,66,-176,-174,8464,3868,-11450,32,-19,3
32767,32767,2268,-113,-1,15,23700,25146,-1552,55,-129,-145,8550,4108,-11568,51,16,14
32767,32767,2192,-97,-14,0,23428,25166,-1582,45,-128,-145,8274,4028,-11358,-1,64,8
32767,32767,2262,-74,-26,-19,23596,25330,-1712,63,-145,-108,8006,3776,-11100,-36,52,-7
32767,32767,2196,-33,-32,-39,23610,25084,-1646,43,-138,-118,8124,3594,-11110,-21,15,-11
32767,32767,2110,-25,-38,-41,23632,25008,-1726,83,-160,-143,8356,3574,-11256,37,-2,8
32767,32767,2166,-42,-37,-31,23684,24928,-1880,118,-164,-139,8482,3686,-11376,88,10,29
32767,32767,2186,-41,-40,-31,23764,24892,-1672,131,-164,-135,8458,3872,-11438,99,29,29
32767,32767,2278,-20,-44,-59,23762,25154,-1752,134,-121,-121,8310,4046,-11380,75,43,20
32767,32767,2360,4,-48,-72,23532,25376,-1734,103,-102,-105,8226,4002,-11196,56,39,21
32767,32767,2362,-1,-56,-108,23516,25552,-1718,74,-106,-86,8236,3996,-11160,72,21,34
32767,32767,2324,12,-72,-79,23666,25228,-1608,21,-109,-89,8306,3986,-11198,131,9,73
32767,32767,2454,16,-90,-140,23796,25088,-1546,37,-106,-97,8380,4068,-11166,135,16,88
32767,32767,2416,29,-91,-171,23860,25066,-1734,32,-77,-83,8158,4094,-10996,108,16,87
32767,32767,2580,124,-105,-246,23738,25076,-1664,59,-69,-65,8028,4244,-10842,92,-16,82
32767,32767,2412,158,-125,-192,23664,25162,-1552,57,-72,-70,8078,4354,-10866,91,-54,86
32767,32767,2440,77,-133,-194,23942,25142,-1484,22,-66,-81,8180,4470,-11038,88,-67,99
32767,32767,2542,15,-123,-219,24072,25180,-1526,11,-46,-61,8248,4492,-11108,73,-57,106
32767,32767,2520,-11,-125,-195,23854,24970,-1452,-14,-33,-45,8234,4470,-11134,41,-40,107
32767,32767,2878,10,-110,-185,24006,25084,-1306,-2,-40,-41,8090,4404,-10902,-28,-28,92
32767,32767,2524,77,-90,-223,24020,25316,-1414,18,-21,-21,7978,4344,-10788,-67,-43,78
32767,32767,2242,87,-86,-267,23800,25364,-1260,-6,-16,5,8074,4122,-10860,-62,-73,76
32767,32767,2208,81,-93,-192,24010,25388,-1316,-43,-19,-2,8308,3944,-10960,-41,-80,68
32767,32767,2360,-10,-81,-157,24026,25254,-1296,-64,1,1,8494,3942,-11266,-9,-62,52
32767,32767,2232,-36,-87,-201,23704,24912,-1298,-64,-3,10,8436,4060,-11410,18,-23,42
32767,32767,2226,-75,-68,-148,23758,24906,-1436,-6,-35,4,8360,4262,-11438,25,8,39
32767,32767,2178,-10,-57,-144,24000,25194,-1424,26,-25,22,8220,4250,-11228,21,19,42
32767,32767,1954,114,-39,-191,24004,25464,-1516,-10,3,59,8150,3964,-10950,18,11,38
32767,32767,1892,237,-28,-215,23750,25580,-1588,-84,36,82,8138,3750,-10950,39,-11,29
32767,32767,1948,185,-57,-191,23746,25548,-1722,-135,53,90,8256,3690,-10986,73,-22,7
32767,32767,2104,-21,-59,-152,23750,25334,-1604,-160,44,89,8320,3890,-11186,114,-14,-2
32767,32767,2096,-81,-77,-120,23664,25056,-1624,-156,43,65,8262,4188,-11160,139,17,1
32767,32767,1998,-22,-60,-97,23694,24878,-1714,-120,29,82,8088,4446,-11082,121,36,-8
32767,32767,1938,64,-30,-136,23776,24838,-1790,-106,26,97,8092,4502,-10928,90,11,-18
32767,32767,1944,84,-37,-91,23986,25106,-1604,-65,25,108,8314,4426,-10956,78,0,-22
32767,32767,2060,19,-44,-101,24012,25300,-1756,-77,42,119,8442,4242,-11090,65,35,-22
32767,32767,2180,-39,-58,-103,24078,25416,-1578,-87,37,115,8270,4126,-10978,33,57,-34
32767,32767,2126,-48,-50,-81,24186,25366,-1550,-94,35,105,8136,4182,-10806,18,42,-37
32767,32767,2168,25,-54,-67,23916,25138,-1322,-115,37,93,8180,4200,-10784,34,17,-28
32767,32767,2176,13,-55,-46,24058,25084,-1258,-96,22,90,8238,4364,-10848,59,9,-22
32767,32767,2260,-38,-62,-26,23966,25252,-1210,-68,23,120,8220,4464,-10890,65,25,-21
32767,32767,2242,-79,-51,-31,23682,25294,-1130,-58,16,125,8188,4478,-10916,26,24,-25
32767,32767,2382,-106,-61,-16,24078,25620,-1360,-38,-5,142,8202,4486,-10888,-15,18,-26
32767,32767,2296,-114,-53,-7,24122,25642,-1362,-100,0,152,8204,4414,-10910,-38,25,-9
32767,32767,2466,-86,-48,11,24268,25586,-1518,-118,18,149,8164,4380,-10922,-30,37,7
32767,32767,2524,-67,-39,26,23812,25536,-1660,-155,41,171,8160,4262,-10916,-32,40,2
32767,32767,2504,-20,-30,22,23562,25292,-1570,-219,33,161,8154,4228,-10790,-65,42,-17
32767,32767,2288,-16,-21,5,24354,25344,-1798,-205,37,174,8138,4150,-10726,-104,32,-31
32767,32767,2182,-58,-23,9,23986,25132,-1700,-224,68,191,8138,3980,-10788,-108,21,-34
32767,32767,1994,-135,-25,34,23474,25010,-1576,-186,51,162,8142,4064,-11010,-88,18,-26
32767,32767,2092,-200,-22,83,23530,25086,-1658,-152,13,134,8280,4236,-11272,-67,37,-5
32767,32767,2174,-201,-36,68,23662,25002,-1644,-144,3,117,8472,4266,-11332,-77,51,-8
32767,32767,2212,-176,-20,99,23686,24936,-1590,-133,6,113,8530,4292,-11194,-108,68,-43
32767,32767,2164,-106,-17,86,23772,24954,-1740,-120,10,115,8390,4112,-11040,-143,78,-56
32767,32767,2134,-83,1,131,23776,25050,-1626,-93,10,120,8334,3942,-10842,-146,79,-43
32767,32767,2094,-106,-8,138,23680,25186,-1726,-68,23,113,8350,3914,-10948,-98,66,-13
32767,32767,2388,-163,-15,160,23444,25284,-1524,-93,4,85,8312,4028,-11076,-37,61,10
32767,32767,2248,-193,-15,176,23738,25314,-1646,-110,9,67,8360,4366,-11184,-9,60,26
32767,32767,2316,-155,-37,116,23796,25188,-1612,-133,9,80,8290,4514,-11154,-27,69,32
32767,32767,2440,-100,-60,113,23616,25102,-1502,-112,23,75,8210,4530,-10940,-77,71,30
32767,32767,2518,-53,-38,157,23512,25166,-1560,-109,0,58,8128,4368,-10878,-124,55,45
32767,32767,2512,-46,-52,127,23820,25364,-1642,-66,-1,51,8176,4276,-10956,-129,36,57
32767,32767,2642,-122,-27,156,23642,25284,-1624,-78,-6,45,8296,4286,-11002,-131,37,72
32767,32767,2776,-138,-11,165,23786,25278,-1676,-76,-24,7,8172,4400,-10954,-141,46,80
32767,32767,2458,-119,-9,197,23714,25028,-1606,-81,-37,-1,7990,4550,-10904,-174,50,76
32767,32767,2358,-140,33,194,23742,25022,-1566,-68,-45,-19,8248,4426,-10944,-192,6,58
32767,32767,2404,-118,4,225,23766,25036,-1570,-75,-29,-19,8548,4456,-10948,-210,7,30
32767,32767,2124,-176,0,265,23598,25038,-1576,-27,-42,-13,8504,4434,-11046,-260,44,24
32767,32767,2176,-250,21,247,23614,25166,-1584,-18,-55,-37,8258,4188,-11340,-289,70,41
32767,32767,2172,-240,-9,244,23710,25172,-1636,6,-73,-45,8140,4018,-11424,-246,64,60
32767,32767,2404,-265,-20,188,23792,25268,-1668,-8,-77,-43,8190,3958,-11408,-206,59,54
32767,32767,2518,-212,-45,210,23882,25204,-1746,-2,-82,-49,8248,3910,-11216,-194,63,38
32767,32767,2338,-200,-26,242,23828,25222,-1684,12,-82,-63,8218,3780,-11022,-178,54,29
32767,32767,2234,-143,-24,205,23812,25180,-1638,23,-92,-76,8142,3652,-11006,-129,40,32
32767,32767,2162,-117,-1,179,24048,25280,-1528,22,-92,-76,8122,3770,-11124,-56,29,45
32767,32767,2114,-126,-11,169,23946,25260,-1646,33,-59,-58,8156,4024,-11276,-1,20,55
32767,32767,2246,-177,-21,132,23784,25266,-1548,30,-61,-55,8206,4386,-11422,-12,15,37
32767,32767,2290,-220,-48,106,23798,25322,-1448,30,-77,-66,8288,4576,-11248,-80,32,16
32767,32767,2308,-190,-19,148,23894,25380,-1376,20,-87,-74,8132,4428,-11158,-135,40,5
32767,32767,2188,-120,-29,174,23930,25238,-1400,19,-90,-77,7968,4232,-11124,-138,36,9
32767,32767,2378,-120,-18,112,23840,25122,-1492,38,-98,-79,8038,4056,-11204,-113,20,8
32767,32767,2380,-125,-21,150,23944,25148,-1526,61,-117,-93,8194,4070,-11360,-87,13,0
32767,32767,2442,-149,-9,132,23946,25168,-1408,77,-126,-94,8244,4050,-11338,-65,27,4
32767,32767,2452,-162,-25,113,24110,25308,-1386,42,-107,-100,8222,4038,-11222,-55,38,-1
32767,32767,2342,-153,-4,89,23842,25192,-1386,14,-93,-85,8186,4096,-11190,-21,25,-10
32767,32767,2432,-114,-15,41,23830,25174,-1362,-1,-104,-96,8182,4076,-11082,2,11,-12
32767,32767,2378,-126,-24,21,23816,25160,-1428,42,-115,-91,8160,4068,-11010,-1,2,-15
32767,32767,2228,-109,-39,18,23866,25088,-1386,47,-117,-100,8134,3992,-11102,3,-4,-18
32767,32767,2286,-121,-24,33,23774,24980,-1214,51,-139,-124,8214,4086,-11222,46,-12,-18
32767,32767,2386,-132,-30,27,23908,25008,-1358,30,-133,-177,8376,4266,-11296,73,-4,-21
32767,32767,2468,-140,-25,20,23890,24924,-1396,59,-147,-151,8416,4410,-11250,49,14,-36
32767,32767,2470,-105,-17,6,23866,24760,-1266,80,-156,-170,8346,4242,-11136,-1,25,-45
32767,32767,2368,-62,-10,4,23938,25012,-1360,116,-159,-183,8266,4064,-11174,-6,33,-40
32767,32767,2292,-59,-4,1,23784,25038,-1414,104,-160,-187,8212,3994,-11120,48,33,-29
32767,32767,2302,-68,-7,0,23828,25196,-1194,94,-145,-177,8254,4078,-11086,64,25,-28
32767,32767,2120,-47,-8,-17,23568,25218,-1366,-26,-87,-146,8276,4118,-11048,63,13,-27
32767,32767,2154,9,-25,-20,23444,25248,-1572,-12,-94,-143,8252,4100,-10968,72,11,-21
32767,32767,2192,27,-36,-33,23598,25122,-1668,-14,-105,-123,8286,4204,-11138,98,10,-11
32767,32767,2302,-37,-50,-34,23792,24988,-1646,-1,-108,-124,8310,4358,-11218,92,23,-7
32767,32767,2434,-73,-55,-31,23762,25004,-1890,40,-104,-138,8304,4434,-11154,57,24,-15
32767,32767,2460,-48,-46,-39,23696,25206,-1852,63,-110,-114,8278,4376,-11158,26,26,-17
32767,32767,2528,-2,-40,-52,23656,25256,-1668,11,-99,-124,8354,4262,-11162,28,28,1
32767,32767,2526,10,-40,-68,23854,25410,-1732,2,-81,-110,8308,4112,-11092,32,40,13
32767,32767,2478,31,-49,-86,23746,25102,-1900,-11,-59,-74,8126,4010,-10886,24,35,9
32767,32767,2314,23,-59,-78,23574,24926,-1632,-8,-67,-96,8050,3998,-10882,20,-3,4
32767,32767,2104,21,-69,-106,23814,25254,-1860,47,-64,-69,8162,4068,-10936,39,-32,18
32767,32767,2248,-11,-73,-83,23860,25254,-1864,61,-44,-14,8332,4170,-11120,74,-24,31
32767,32767,2324,-19,-58,-53,23776,25190,-1794,81,-52,-31,8244,4314,-11194,81,-4,39
32767,32767,2566,-6,-67,-102,23778,25180,-1748,45,-73,-86,8148,4450,-11214,53,-4,33
32767,32767,2586,-14,-61,-126,23868,25142,-1676,64,-82,-88,8320,4382,-11008,5,-17,35
32767,32767,2386,-34,-102,-149,23916,25064,-1482,68,-81,-53,8320,4210,-10858,-13,-8,35
32767,32446,2536,45,-83,-207,24032,25164,-1430,29,-37,-27,8178,3988,-10904,1,-13,47
32767,32767,2386,62,-102,-90,23902,25414,-1390,10,15,16,8024,3928,-10864,42,-26,57
32767,32767,2692,14,-68,-240,23476,25394,-1402,-61,43,32,8118,4102,-10992,84,-49,60
32767,32767,2622,34,-89,-276,23518,25132,-1402,-111,45,16,8018,4178,-10756,79,-51,54
32767,32767,2422,30,-91,-249,23642,24678,-1382,-123,31,1,8008,4216,-10600,39,-63,31
32767,32767,2268,46,-99,-273,23534,24384,-1278,-87,18,-1,7952,4148,-10630,11,-87,16
32767,32767,2062,5,-102,-219,23602,24512,-1194,-25,6,13,8248,4084,-11046,32,-101,4
32767,32767,2224,-70,-80,-137,24100,25572,-1572,-51,-12,85,8390,4270,-11198,48,-80,0
32767,32767,2284,-76,-59,-138,24060,25502,-1560,-90,0,97,8458,4430,-11274,29,-42,-5
32767,32767,2148,-41,-47,-87,24122,25560,-1686,-82,16,136,8354,4466,-11188,-7,-14,-14
32767,32767,2238,-10,-25,-144,23958,25612,-1630,-99,31,156,8386,4284,-11080,-37,-12,-21
32767,32767,2128,1,-34,-119,23890,25534,-1764,-102,29,163,8352,3962,-10930,-43,-2,-22
32767,32767,1986,-63,-56,-143,23936,25480,-1608,-125,16,161,8172,3730,-10932,-32,8,-31
32767,32767,1806,-73,-46,-152,24004,25500,-1680,-121,21,168,8130,3678,-10860,19,-11,-31
32767,32767,1822,-14,-53,-147,23854,25314,-1660,-148,17,168,8334,3886,-11030,116,-23,-13
32767,32767,2008,-48,-35,-110,23650,25236,-1706,-112,35,173,8452,4210,-11096,141,2,-20
32767,32767,2020,36,-43,-56,23692,25186,-1700,-116,6,154,8400,4462,-11160,127,29,-39
32767,32767,1880,8,-40,-61,23542,25170,-1598,-79,6,142,8380,4582,-11246,107,40,-36
32767,32767,2068,-43,-45,-65,23716,25148,-1712,-126,-6,116,8574,4522,-11324,84,53,-22
32767,32767,2162,-59,-55,-97,23648,25090,-1690,-82,16,118,8584,4326,-11160,44,96,-18
32767,32767,2164,8,-49,-67,23332,24948,-1554,-95,5,116,8236,4024,-10858,5,130,-21
32767,32767,2318,94,-43,-97,23746,25094,-1724,-62,0,107,7800,3748,-10372,-23,112,-37
32767,32767,1996,153,-51,-109,23712,25210,-1762,-38,29,120,7690,3738,-10234,16,35,-43
32767,32767,1932,132,-54,-61,23182,25136,-1580,-80,13,82,8038,3930,-10508,82,-12,-34
32767,32767,2170,-39,-69,-27,23544,25204,-1642,-116,-3,25,8380,4288,-10826,105,0,-32
32767,32767,2164,-220,-89,-16,23740,25196,-1662,-113,17,57,8454,4518,-11166,61,44,-41
32767,32767,2344,-199,-74,-1,23200,24832,-1578,-139,25,57,8372,4602,-11128,-33,85,-56
32767,32767,2484,-93,-51,4,23400,24892,-1654,-71,-19,30,8160,4400,-10874,-119,97,-63
32767,32767,2604,-16,-32,18,24174,25188,-1696,-41,-9,35,8034,4024,-10734,-163,80,-64
32767,32767,2480,-11,-15,36,23868,25354,-1612,-45,14,23,8186,3628,-10748,-137,39,-58
32767,32767,2424,-37,-3,46,23524,25494,-1694,-50,1,-15,8376,3468,-10926,-65,32,-51
32767,32767,2470,-99,6,48,23542,25610,-1716,-79,-14,-13,8328,3658,-11050,16,54,-49
32767,32767,2410,-132,15,51,23596,25314,-1582,-90,-22,-9,8232,4018,-10952,28,52,-45
32767,32767,2106,-86,12,52,23718,25246,-1682,-75,-42,-25,8226,4212,-10928,22,26,-28
32767,32767,2128,-70,15,68,23948,25314,-1716,-69,-41,-21,8420,4274,-11056,26,8,-11
32767,32767,2250,-107,1,95,23930,25366,-1770,-42,-28,-8,8612,4264,-11132,26,31,0
32767,32767,2324,-132,-13,92,23758,25444,-1798,-61,-19,-25,8498,4270,-11112,-11,72,0
32767,32767,2450,-113,-13,83,23748,25364,-1808,-55,-20,-27,8272,4242,-10942,-55,81,0
32767,32767,2396,-65,-15,72,23746,25214,-1706,-42,-36,-38,8226,4170,-10916,-69,56,11
32767,32767,2306,-54,-15,87,23838,25184,-1756,-13,-50,-56,8346,4140,-10990,-55,49,51
32767,32767,2294,-75,-9,90,23900,25422,-1682,1,-47,-49,8256,4220,-10982,-49,68,73
32767,32767,2466,-74,-12,92,23820,25508,-1788,1,-39,-37,8122,4204,-10930,-72,62,67
32767,32767,2166,-72,-7,121,23690,25564,-1702,-7,-45,-39,8118,4316,-10896,-99,35,50
32767,32767,2314,-84,4,171,23700,25540,-1732,-25,-58,-41,8364,4278,-10970,-111,24,54
32767,32767,2166,-99,-9,182,23980,25386,-1748,-47,-63,-38,8526,4340,-11228,-111,41,64
32767,32767,2180,-144,-10,196,23984,25274,-1684,-54,-48,-35,8536,4426,-11150,-128,75,69
32767,32767,2268,-157,-20,197,23818,25190,-1764,-39,-47,-33,8304,4442,-11206,-173,96,66
32767,32767,2242,-142,4,256,23724,25194,-1658,-16,-62,-45,8162,4248,-11180,-210,86,66
32767,32767,2158,-128,-27,196,23856,25202,-1602,18,-82,-54,8240,4054,-11080,-216,72,66
32767,32767,2060,-167,0,216,24044,25480,-1630,8,-74,-47,8296,3962,-11096,-195,66,66
32767,32767,2050,-160,-15,205,23876,25486,-1656,17,-60,-26,8346,3866,-11152,-159,76,74
32767,32767,2172,-181,-18,177,23764,25442,-1630,5,-73,-27,8192,3848,-11318,-125,86,81
32767,32767,2262,-173,-33,208,23822,25386,-1628,10,-96,-45,8088,3904,-11244,-110,95,80
32767,32767,2358,-152,-38,142,23820,25302,-1766,39,-114,-50,8006,3932,-11068,-106,79,66
32767,32767,2184,-109,-39,206,23830,25272,-1816,74,-121,-49,8100,3952,-11004,-87,58,59
32767,32767,2310,-145,-27,130,23878,25312,-1832,95,-126,-47,8200,3898,-11026,-61,45,50
32767,32767,2334,-134,-46,147,23908,25442,-1832,101,-124,-51,8066,3966,-11200,-49,58,39
32767,32767,2108,-119,-27,203,23770,25478,-1942,104,-110,-49,8008,4118,-11284,-46,56,28
32767,32767,2350,-117,-12,148,23782,25472,-1990,111,-116,-47,8158,4126,-11310,-51,37,19
32767,32767,2364,-142,-48,119,23536,25290,-1532,88,-159,-88,8188,4054,-11152,-83,42,1
32767,32767,2156,-177,-27,123,23896,25278,-1600,73,-152,-112,8094,3916,-11138,-105,44,-17
32767,32767,2282,-163,-25,98,23942,24990,-1562,65,-142,-71,8100,3740,-11084,-74,27,-20
32767,32767,2292,-144,-29,122,23484,24540,-1434,50,-145,-118,8132,3802,-11302,-23,20,-18
32767,32767,2318,-152,-11,113,23768,24920,-1566,134,-166,-137,8074,4114,-11308,5,15,-24
32767,32767,2220,-101,1,138,23826,25072,-1574,178,-144,-66,8068,4152,-11190,23,0,-20
32767,32767,2212,-114,-21,71,23538,24798,-1296,150,-162,-103,8218,4258,-11300,37,-13,-21
32767,32767,2342,-161,-30,66,23904,25312,-1360,166,-175,-178,8266,4180,-11254,20,-3,-29
32767,32767,2456,-134,-32,65,23682,25122,-1426,56,-135,-132,8320,4080,-11274,-1,5,-39
32767,32767,2490,-126,-10,74,23598,24858,-1266,38,-144,-177,8278,4026,-11254,-6,14,-46
32767,32767,2386,-124,5,65,23734,25076,-1476,73,-142,-191,8148,4122,-11238,-9,14,-44
32767,32767,2280,-107,4,50,23644,24900,-1342,29,-137,-181,8148,4106,-11258,6,5,-39
32767,32767,2144,-135,-7,37,23780,24982,-1170,61,-135,-183,8208,4168,-11216,14,-8,-37
32767,32767,2132,-174,-18,35,23718,25122,-1592,73,-127,-165,8396,4182,-11390,9,9,-39
32767,32767,2134,-151,-21,35,23546,25278,-1362,40,-112,-168,8416,4090,-11410,-6,37,-38
32767,32767,2206,-62,-10,41,23918,25400,-1590,44,-126,-148,8204,3986,-11220,-4,43,-41
32767,32767,2232,-23,-4,40,23806,25148,-1622,20,-114,-176,8140,4000,-11054,2,25,-43
32767,32767,2204,-30,-13,30,23664,25210,-1672,43,-131,-199,8200,3918,-11158,14,3,-38
32767,32767,2232,-73,-19,32,23700,25094,-1638,54,-138,-191,8342,3838,-11180,34,6,-29
32767,32767,2334,-100,-24,28,23786,25162,-1820,86,-127,-150,8368,3906,-11172,52,27,-25
32767,32767,2324,-94,-21,12,23692,25316,-1696,67,-122,-147,8320,4074,-11096,43,33,-28
32767,32767,2306,-72,-18,5,23860,25694,-1800,55,-95,-112,8304,4174,-11132,31,25,-28
32767,32767,2108,-64,-19,-2,23816,25580,-1834,30,-73,-77,8326,4178,-11168,34,13,-25
32767,32767,2200,-100,-28,5,23706,25518,-1814,13,-68,-76,8460,4164,-11302,40,27,-21
32767,32767,2230,-104,-29,-6,23744,25458,-1996,3,-50,-68,8352,4160,-11200,14,54,-17
32767,32767,2308,-70,-35,-19,23800,25384,-1904,1,-53,-41,8084,4018,-11090,-20,61,-18
32767,32767,2216,-41,-43,-16,23892,25366,-1852,-22,-49,-42,8114,3846,-11090,-15,30,-12
32767,32767,2292,-52,-38,-10,24046,25388,-1820,-48,-29,-41,8326,3942,-11194,32,2,5
32767,32767,2418,-60,-34,-5,23968,25256,-1746,-35,-12,-5,8568,4072,-11402,64,18,24
32767,32767,2414,-55,-32,-11,23836,25054,-1702,-8,-13,-3,8274,4116,-11546,51,71,30
32767,32767,2514,-49,-26,-22,23802,25194,-1704,39,-22,2,8166,3990,-11374,20,70,26
32767,32767,2308,-2,-23,-46,23722,25402,-1666,70,-28,24,8256,3922,-11268,18,47,28
32767,32767,2050,29,-20,-62,23708,25462,-1602,60,-24,36,8324,3866,-11232,42,44,41
32767,32767,2066,68,-20,-62,23714,25518,-1702,36,-20,37,8322,3848,-11384,69,50,48
32767,32767,1940,78,-30,-57,23660,25452,-1686,-6,-14,48,8396,3956,-11454,96,53,55
32767,32767,2166,46,-47,-66,23666,25206,-1782,-30,-10,45,8490,3968,-11506,103,68,63
32767,32767,2120,6,-102,-141,23640,25066,-1798,-38,-2,29,8314,3982,-11234,61,90,45
32767,32767,2268,34,-51,-42,23746,24942,-1832,-27,-4,38,8094,3904,-11082,38,72,44
32767,32767,2202,132,-98,-225,23764,24794,-1758,-1,-5,30,8072,3704,-10966,66,37,49
32767,32767,2248,92,-94,-218,23528,24766,-1656,17,-15,1,8224,3856,-11066,97,20,47
32767,32767,2172,85,-68,-153,23742,24836,-1600,49,-23,15,8264,3978,-11204,111,16,44
32767,32767,2358,114,-103,-196,23906,24962,-1624,76,-27,35,8128,3998,-11160,106,26,43
32767,32767,2264,19,-109,-157,23782,25248,-1484,76,-21,23,7938,4226,-11004,76,31,28
32767,32767,2472,62,-93,-140,23754,25476,-1562,54,-20,29,7910,4130,-10890,41,1,16
32767,32767,2258,107,-111,-204,23850,25594,-1400,35,-13,58,7988,3940,-10780,34,-36,18
32767,32767,2092,1,-100,-210,23818,25550,-1466,-6,-10,58,8226,3970,-11104,65,-45,21
32767,32767,2482,0,-109,-198,23870,25558,-1590,-17,-14,70,8168,4030,-11030,51,-31,15
32767,32767,2276,-4,-107,-199,23852,25560,-1638,-17,-7,90,7980,4078,-10984,26,-39,-1
32767,32767,2294,-2,-104,-176,23842,25616,-1770,-22,4,113,8034,4088,-10958,23,-60,-18
32767,32767,2242,-3,-94,-224,24038,25846,-1882,-29,15,139,8198,4030,-10996,13,-85,-23
32767,32767,2278,-52,-87,-128,24112,26042,-1882,-76,33,171,8344,4110,-11196,20,-79,-11
32767,32767,2070,-72,-92,-160,23930,26086,-1946,-147,54,179,8348,4130,-11326,39,-57,-2
32767,32767,2188,-97,-59,-190,23936,25950,-2114,-208,73,198,8338,4214,-11390,44,-43,0
32767,32767,2350,-44,-73,-193,23818,25572,-2024,-257,89,212,8316,4128,-11208,34,-34,-2
32767,32767,2078,39,-64,-261,23854,25398,-2116,-228,91,208,8284,3990,-11070,0,-34,-18
32767,32767,2260,103,-51,-241,23758,25342,-2144,-182,71,207,8202,3712,-10920,15,-34,-18
32767,32767,2164,68,-71,-244,23626,25196,-1914,-143,51,182,8098,3672,-10904,44,-33,-16
32767,32767,1828,-45,-68,-138,23958,25218,-2086,-115,36,160,8104,3806,-11002,77,-31,-12
32767,32767,1854,-83,-70,-113,23784,25182,-1844,-105,30,142,8150,4068,-11096,90,-37,-20
32767,32767,1904,-70,-41,-135,23682,25078,-1924,-83,30,120,8380,4334,-11236,79,-26,-22
32767,32767,1704,-8,-32,-115,23500,25028,-1678,-47,3,102,8470,4394,-11176,49,1,-33
32767,32767,1898,33,-13,-51,23712,25214,-1706,-16,1,86,8590,4328,-11144,-5,30,-44
32767,32767,1942,27,-16,-55,23468,25254,-1554,-20,-3,95,8494,3970,-11020,-57,50,-43
32767,32767,1866,-45,-29,-88,23664,25378,-1554,-57,-12,66,8350,3890,-11026,-61,60,-37
32767,32767,1796,-140,-43,-30,23844,25538,-1638,-50,1,80,8300,3914,-11010,-19,54,-19
32767,32767,1920,-64,-53,7,23604,25272,-1634,-93,8,63,8352,3980,-11250,35,54,4
32767,32767,2034,14,-48,-1,23510,25274,-1580,-57,-8,41,8304,4056,-11310,55,65,6
32767,32767,2324,44,-56,-5,23676,25294,-1484,-73,-17,33,8270,4102,-11134,26,79,-7
32767,32767,2364,-8,-60,-20,23752,25376,-1518,-69,-16,35,8198,4046,-11000,-1,85,-22
32767,32767,2236,-69,-55,-17,23632,25476,-1812,-75,-15,33,8144,4024,-11018,-8,87,-19
32767,32767,2212,-37,-46,-15,23796,25584,-1800,-91,-18,24,8144,3816,-11102,-15,89,-7
32767,32767,2112,19,-33,-8,23880,25626,-1768,-118,-18,20,8236,3792,-11150,-9,88,-8
32767,32767,2034,1,-32,1,23920,25590,-1804,-145,8,12,8278,3792,-11200,-3,93,-21
32767,32767,2108,-90,-36,15,23648,25442,-1854,-149,10,14,8408,4000,-11284,1,95,-32
32767,32767,2132,-103,-47,16,23480,25358,-1804,-139,2,6,8506,4006,-11216,5,101,-24
32767,32767,2168,-70,-58,-12,23814,25482,-2020,-107,-11,1,8414,3940,-11240,-9,117,-17
32767,32767,2144,-3,-43,5,23936,25672,-1918,-114,-9,8,8202,3740,-11020,-22,117,-17
32767,32767,2306,56,-38,22,23906,25756,-1886,-123,-9,11,8150,3628,-11070,-6,95,-5
32767,32767,2336,50,-51,26,23978,25690,-1904,-136,-1,0,8096,3738,-11088,46,70,21
32767,32767,2328,8,-55,28,23774,25702,-1932,-141,1,-9,8142,3990,-11110,59,59,30
32767,32767,2362,-11,-49,33,23646,25556,-1866,-132,-12,-23,8214,4148,-11230,41,53,32
32767,32767,2502,-48,-45,27,23894,25558,-1884,-117,-30,-28,8276,4262,-11200,7,55,38
32767,32767,2470,-65,-31,39,23828,25448,-1982,-80,-26,-1,8210,4274,-11240,-39,69,43
32767,32767,2378,-55,-15,59,23728,25488,-1894,-61,-41,-18,8134,4190,-11162,-84,71,42
32767,32767,2288,-37,7,91,23724,25452,-2006,-59,-44,-26,8188,4084,-11134,-118,57,37
32767,32767,2118,-41,26,108,23604,25384,-1816,-65,-47,-27,8380,4080,-11194,-134,49,35
32767,32767,2028,-90,37,137,23762,25238,-1802,-64,-71,-37,8332,4134,-11270,-154,56,34
32767,32767,1988,-141,22,189,24016,25300,-1794,-38,-72,-49,8292,4156,-11304,-173,62,19
32767,32767,1932,-212,29,221,23768,25386,-1744,-5,-70,-54,8324,4220,-11382,-195,58,-5
32767,32767,1958,-219,39,267,23752,25572,-1746,41,-78,-54,8490,4054,-11584,-215,63,-8
32767,32767,1758,-197,26,329,23760,25640,-1740,46,-83,-46,8556,3984,-11654,-207,93,2
32767,32767,1972,-217,44,310,23924,25728,-1874,39,-82,-38,8492,3876,-11812,-181,121,13
32767,32767,2132,-223,16,285,23914,25708,-1728,25,-87,-32,8442,3858,-11724,-160,138,17
32767,32767,2048,-226,0,245,23876,25544,-1882,-3,-85,-40,8308,3768,-11584,-142,135,23
32767,32767,2258,-189,-4,248,23840,25362,-1832,9,-88,-44,8244,3624,-11450,-110,124,33
32767,32767,2176,-134,-12,242,23840,25188,-1860,36,-116,-56,8140,3480,-11500,-45,107,45
32767,32767,2156,-127,-12,173,23818,25172,-1734,102,-125,-59,8128,3474,-11434,8,85,45
32767,32767,2308,-50,-46,178,23866,25272,-1852,148,-141,-51,8136,3740,-11376,43,73,35
32767,32767,2432,-77,-25,117,23910,25382,-1706,167,-155,-50,8072,3814,-11286,39,62,29
32767,32767,2470,-88,-62,93,23940,25606,-1736,150,-125,-56,7998,4058,-11232,18,50,19
32767,32767,2276,-154,-24,132,23776,25664,-1736,93,-93,-46,8028,4156,-11318,5,35,24
32767,32767,2388,-132,-38,116,23418,25324,-1694,17,-107,-76,8116,4144,-11446,-9,27,23
32767,32767,2370,-132,-17,126,23690,25448,-1598,46,-106,-81,8164,4122,-11464,-44,28,16
32767,32767,2494,-123,-27,98,24026,25222,-1730,73,-100,-27,8120,3926,-11316,-117,27,-14
32767,32767,2356,-117,-19,107,23604,25040,-1284,91,-135,-81,8026,3840,-11282,-120,6,-25
32767,32767,2418,-88,5,123,23754,25320,-1586,62,-145,-171,8172,3770,-11352,-83,-20,-24
32767,32767,2280,-102,16,137,23852,25558,-1562,97,-129,-92,8226,3824,-11432,-61,-27,-16
32767,32767,2406,-197,22,140,23530,24996,-1450,14,-119,-85,8172,3852,-11456,-59,-23,-19
32767,32767,2120,-219,5,115,23738,25220,-1462,76,-156,-135,8132,3990,-11402,-55,-30,-28
32767,32767,2156,-186,6,125,24004,25290,-1636,78,-153,-111,8118,3976,-11480,-47,-39,-34
32767,32767,2116,-140,6,139,23942,25180,-1322,67,-141,-103,8212,3976,-11532,-47,-48,-46
32767,32767,2098,-152,16,158,23966,25324,-1658,96,-136,-141,8438,3940,-11526,-73,-39,-50
32767,32767,2102,-165,12,165,23862,25328,-1550,71,-126,-135,8374,3954,-11426,-84,-18,-46
32767,32767,2166,-205,9,152,23816,25390,-1556,37,-117,-140,8198,3930,-11446,-82,-6,-38
32767,32767,2112,-219,-8,109,23814,25608,-1550,9,-108,-145,8120,4018,-11544,-72,-15,-33
32767,32767,2066,-208,-12,107,23808,25602,-1728,11,-105,-125,8232,4006,-11604,-52,-33,-33
32767,32767,2052,-210,-9,119,23616,25396,-1650,18,-120,-126,8476,3922,-11546,-46,-35,-25
32767,32767,2156,-195,-17,109,23636,25410,-1756,47,-130,-154,8534,3820,-11520,-64,-5,-23
32767,32767,2286,-175,-15,93,23968,25294,-1876,83,-151,-138,8360,3764,-11474,-71,23,-22
32767,32767,2292,-177,-27,56,24066,25302,-1704,73,-144,-150,8084,3808,-11424,-20,4,-9
32767,32767,2202,-154,-23,50,23810,25330,-1810,25,-120,-177,8320,3842,-11440,9,-19,-5
32767,32767,2082,-116,-27,47,23602,25438,-1790,22,-97,-163,8504,3768,-11402,-5,-19,-10
