ax,ay,az,gx,gy,gz,ax,ay,az,gx,gy,gz,ax,ay,az,gx,gy,gz
32767,31918,1998,-54,-41,7,23408,23594,-946,-20,-42,-7,9368,9296,-6996,-16,33,19
32767,31886,1962,-52,-37,7,23426,23626,-878,-31,-51,-6,9318,9328,-7010,-18,39,9
32767,31884,2062,-41,-41,7,23458,23570,-936,-39,-48,-7,9294,9334,-7054,-35,42,0
32767,32000,2100,-65,-46,3,23404,23436,-914,-32,-46,-9,9220,9376,-6972,-61,43,-2
32767,31738,2192,-82,-49,1,23430,23450,-1096,-22,-45,-11,9158,9306,-6952,-61,33,3
32767,31688,2116,-68,-43,0,23452,23510,-930,3,-49,-10,9224,9198,-6926,-31,13,6
32767,31800,2164,-59,-33,6,23524,23682,-1054,5,-49,-14,9214,9176,-6924,-8,5,3
32767,31772,2052,-52,-23,14,23502,23906,-1016,-7,-45,-9,9318,9260,-7006,7,7,1
32767,31774,2066,-46,-23,20,23420,23874,-990,-28,-43,-8,9322,9344,-7032,17,17,1
32767,31868,2020,-61,-35,16,23544,23788,-1060,-44,-48,-12,9248,9450,-6926,13,29,0
32767,32052,2032,-83,-44,9,23616,23704,-1052,-42,-37,-12,9182,9520,-6990,-1,21,0
32767,31922,2042,-118,-45,6,23510,23620,-1076,-34,-34,-13,9286,9508,-7102,-8,7,5
32767,31772,2046,-97,-40,8,23394,23728,-1040,-21,-41,-10,9414,9542,-7022,-19,13,7
32767,31912,1944,-59,-32,16,23482,23756,-1054,-29,-40,-3,9392,9520,-7026,-37,34,7
32767,31954,1886,-56,-29,16,23478,23694,-1038,-37,-42,0,9304,9374,-7084,-51,45,3
32767,32078,2006,-75,-32,5,23500,23530,-1058,-49,-38,-6,9264,9254,-6984,-64,48,-2
32767,32112,2000,-94,-39,2,23390,23458,-902,-48,-37,-8,9226,9226,-7062,-64,43,-3
32767,31906,2004,-101,-42,6,23368,23494,-852,-44,-42,-6,9228,9158,-6982,-45,37,2
32767,31712,2012,-74,-37,4,23524,23632,-820,-36,-42,-6,9264,9176,-6928,-25,36,5
32767,31792,2004,-47,-28,9,23562,23686,-926,-37,-33,-12,9172,9222,-6840,-13,33,-2
32767,31840,2130,-55,-31,9,23368,23678,-980,-42,-32,-12,9098,9358,-6948,-7,25,-8
32767,31966,2228,-69,-40,11,23306,23586,-1088,-49,-42,-12,9144,9530,-6948,-5,4,1
32767,31936,2120,-100,-49,10,23556,23494,-1166,-29,-48,-15,9288,9548,-7054,-18,1,12
32767,31862,2188,-137,-42,9,23446,23604,-1200,-33,-38,-13,9388,9418,-7102,-36,16,4
32767,31602,2170,-122,-34,7,23498,23722,-1154,-31,-40,-9,9372,9312,-7108,-55,28,-6
32767,31720,2122,-93,-22,10,23640,23772,-1050,-45,-39,-14,9292,9292,-7080,-66,36,-13
32767,31820,1970,-77,-18,10,23700,23768,-958,-57,-28,-20,9262,9244,-7074,-70,36,-18
32767,31912,1840,-79,-20,9,23546,23646,-990,-49,-21,-18,9300,9268,-6904,-61,29,-18
32767,32038,1898,-95,-27,10,23400,23684,-964,-42,-30,-16,9346,9384,-6964,-39,22,-6
32767,31852,1898,-123,-37,12,23332,23686,-1096,-31,-36,-5,9358,9438,-6982,-6,22,7
32767,31724,1930,-113,-41,11,23290,23584,-1212,-37,-37,-3,9356,9426,-7138,1,28,7
32767,31780,2034,-87,-46,9,23424,23506,-1240,-47,-38,-7,9216,9358,-7102,-16,42,2
32767,31960,2040,-65,-44,5,23594,23434,-1174,-51,-34,-16,9114,9264,-7132,-43,49,-4
32767,32100,2190,-75,-32,3,23582,23266,-1094,-49,-25,-24,9166,9174,-7120,-59,37,-8
32767,31850,2018,-88,-23,4,23416,23318,-1012,-27,-26,-25,9376,9182,-7078,-68,23,-6
32767,31618,1860,-86,-23,6,23388,23494,-936,-8,-38,-18,9424,9134,-7022,-61,24,-2
32767,31546,1844,-74,-28,8,23448,23694,-946,15,-54,-6,9402,9176,-6986,-35,31,-3
32767,31616,1844,-72,-40,13,23318,23924,-928,0,-51,-1,9322,9232,-6996,-17,26,-7
32767,31578,1910,-75,-51,18,23412,23878,-1078,-36,-47,-5,9268,9242,-7060,-10,28,-6
32767,31684,2006,-41,-43,23,23574,23598,-1192,-56,-40,-12,9064,9268,-6988,5,37,0
32767,32116,2342,-16,-35,11,23500,23364,-1184,-58,-31,-22,9000,9352,-6986,7,28,4
32767,32462,2266,-90,-45,2,23390,23358,-1160,-38,-36,-17,9208,9384,-6980,-5,-1,7
32767,31904,2062,-152,-47,1,23396,23446,-988,-21,-45,-10,9500,9312,-7184,-10,-11,11
32767,31376,1894,-113,-36,4,23334,23554,-1048,-5,-56,-8,9602,9312,-7202,-17,21,7
32767,31582,1868,-39,-22,9,23464,23772,-1070,-11,-58,-7,9426,9316,-7092,-41,57,-5
32767,31986,1946,-38,-30,6,23530,23654,-1104,-22,-44,-11,9080,9256,-7090,-74,55,-15
32767,31884,2050,-64,-43,11,23406,23644,-1102,-33,-41,-16,9110,9254,-6966,-73,30,-8
32767,31814,2068,-83,-45,7,23412,23596,-1118,-18,-44,-14,9216,9202,-7072,-57,16,1
32767,31766,2048,-84,-41,4,23414,23652,-1020,4,-48,-5,9284,9136,-7032,-28,15,7
32767,31766,1932,-80,-39,3,23360,23716,-1016,-7,-55,0,9286,9170,-7106,13,22,7
32767,31780,1922,-65,-37,7,23428,23658,-1082,-28,-53,-6,9304,9208,-7120,29,25,8
32767,31842,1920,-55,-41,10,23430,23462,-960,-43,-48,-11,9276,9310,-7140,20,25,11
32767,31932,2006,-57,-43,7,23410,23388,-1042,-42,-45,-13,9252,9328,-6970,2,30,13
32767,31980,2196,-48,-41,4,23448,23380,-1016,-17,-42,-15,9144,9396,-6974,-8,31,13
32767,31894,2152,-55,-36,-3,23406,23460,-1118,-7,-46,-12,9166,9344,-6984,-27,19,11
32767,31848,2100,-62,-37,-3,23328,23636,-1022,-5,-55,-9,9294,9288,-7024,-48,11,9
32767,31670,2000,-69,-33,2,23360,23750,-906,-26,-59,-11,9382,9236,-7030,-57,19,6
32767,31618,1926,-53,-29,7,23484,23778,-1022,-37,-53,-8,9314,9156,-7110,-47,26,1
32767,31702,1984,-45,-29,12,23460,23592,-1030,-44,-47,-5,9144,9168,-7126,-40,24,-5
32767,31734,2102,-56,-33,14,23558,23524,-1044,-34,-43,-14,9208,9172,-7026,-39,22,-4
32767,32056,2120,-87,-52,4,23538,23480,-1112,-24,-34,-18,9190,9212,-6944,-39,20,-3
32767,31872,1968,-126,-50,5,23342,23622,-1082,-27,-39,-13,9150,9262,-6924,-16,9,6
32767,31562,2018,-96,-35,12,23308,23692,-1062,-31,-49,-8,9252,9312,-6976,17,-2,17
32767,31730,2020,-49,-24,14,23380,23674,-916,-29,-57,-6,9406,9354,-7080,18,1,19
32767,31938,1896,-54,-25,10,23504,23626,-994,-24,-54,-9,9360,9352,-7140,0,11,9
32767,31908,1914,-81,-38,6,23450,23542,-1084,-31,-45,-7,9330,9354,-7116,-30,27,1
32767,31898,1896,-101,-45,4,23424,23426,-1084,-30,-42,-11,9212,9300,-7124,-54,44,0
32767,31804,2102,-101,-45,4,23392,23468,-1022,-27,-46,-17,9098,9294,-6992,-61,40,8
32767,31758,2154,-67,-34,5,23342,23536,-1016,-23,-59,-16,9114,9236,-6926,-48,13,18
32767,31782,2098,-58,-32,4,23434,23544,-1022,-23,-64,-12,9264,9210,-6954,-29,-4,16
32767,31940,2066,-60,-24,2,23482,23514,-1074,-11,-62,-9,9334,9160,-7058,-9,4,10
32767,31838,1976,-76,-22,4,23418,23574,-1060,-1,-58,-8,9360,9180,-7112,-6,13,10
32767,31682,2000,-90,-32,2,23468,23588,-1062,8,-59,-8,9334,9212,-7202,-13,18,5
32767,31598,1954,-89,-35,2,23390,23702,-1054,7,-59,-13,9208,9234,-7058,-23,19,2
32767,31630,2094,-69,-33,0,23430,23700,-1028,-3,-61,-8,9154,9256,-7032,-25,13,8
32767,31756,2032,-60,-28,4,23438,23554,-1048,3,-66,-2,9208,9260,-6942,-13,0,19
32767,31874,1982,-64,-25,5,23496,23500,-1078,3,-73,-3,9290,9170,-7058,10,-9,26
32767,31844,1996,-65,-28,5,23604,23514,-1092,2,-67,2,9330,9178,-7164,23,-7,32
32767,31852,1866,-77,-30,2,23606,23476,-1180,2,-53,-1,9294,9250,-7008,26,11,30
32767,31684,2016,-79,-29,1,23422,23526,-1092,-3,-45,-12,9302,9280,-6936,28,9,28
32767,31748,1990,-53,-21,-1,23404,23592,-1048,-12,-49,-12,9318,9316,-6900,30,2,29
32767,31822,2126,-34,-14,4,23432,23656,-912,-33,-55,-11,9338,9380,-6864,22,11,25
32767,31928,2034,-43,-15,1,23474,23702,-918,-36,-55,-2,9260,9396,-6888,15,16,20
32767,31738,1874,-55,-17,2,23454,23640,-994,-34,-55,-4,9262,9362,-6970,17,9,19
32767,31642,1628,-46,-22,7,23606,23580,-1100,-16,-46,-10,9368,9378,-6968,8,15,12
32767,31698,1938,-38,-39,5,23582,23678,-1074,-10,-33,-16,9352,9282,-6994,-20,35,-4
32767,31918,2026,-62,-49,1,23538,23758,-976,-15,-25,-15,9168,9396,-6906,-37,43,-12
32767,31894,2170,-84,-47,6,23384,23908,-1008,-27,-29,-11,9190,9464,-6952,-32,32,-5
32767,31764,2206,-82,-39,10,23410,23848,-878,-72,-37,-8,9220,9506,-6986,-28,27,1
32767,31710,1974,-63,-30,14,23570,23612,-984,-89,-33,-3,9310,9498,-6918,-24,24,-1
32767,31686,1858,-52,-25,14,23584,23442,-1082,-89,-22,-11,9382,9460,-7056,-23,25,-10
32767,31842,1802,-48,-33,12,23494,23346,-1040,-74,-7,-24,9406,9478,-7014,-41,40,-16
32767,32050,1942,-65,-44,11,23314,23406,-960,-81,-5,-32,9330,9394,-7068,-68,68,-20
32767,31946,2176,-103,-53,5,23160,23388,-884,-81,-17,-28,9118,9406,-6918,-93,70,-23
32767,31818,2142,-79,-41,6,23138,23350,-838,-57,-41,-19,9034,9416,-6886,-106,45,-18
32767,31864,2040,-56,-31,11,23320,23338,-846,-38,-60,-14,9262,9394,-7002,-84,17,-3
32767,31934,1976,-81,-36,8,23478,23556,-1024,-19,-60,-14,9362,9210,-7060,-84,24,-6
32767,31638,1838,-129,-54,-4,23474,23652,-1048,-18,-51,-18,9268,9050,-7254,-114,40,-21
32767,31480,1904,-127,-61,-4,23400,23650,-1092,-27,-47,-28,9076,8894,-7112,-122,44,-27
32767,31480,2242,-89,-45,8,23368,23638,-1088,-35,-51,-22,8996,8904,-7058,-96,30,-17
32767,31754,2460,-60,-28,12,23468,23466,-1086,-34,-57,-11,9004,9018,-6958,-58,3,-2
32767,31828,2398,-79,-13,14,23536,23454,-1202,-20,-55,-12,9086,9082,-6944,-10,-23,12
32767,31724,2060,-92,-9,13,23496,23538,-1202,-27,-49,-4,9286,9070,-6896,39,-37,25
32767,31774,1998,-127,-23,4,23504,23494,-1214,-25,-51,-2,9504,9168,-7044,51,-17,22
32767,31558,2002,-134,-32,0,23602,23478,-1182,-26,-40,-16,9400,9338,-7156,25,6,10
32767,31656,1892,-64,-30,1,23444,23532,-1154,-36,-30,-11,9298,9456,-7048,2,13,7
32767,32030,1876,-53,-18,-2,23454,23566,-1090,-40,-33,-8,9318,9504,-7002,-31,11,9
32767,32010,1948,-91,-17,-5,23502,23588,-1042,-47,-34,-15,9304,9384,-6892,-82,15,7
32767,31814,1862,-101,-23,0,23362,23614,-920,-46,-33,-12,9442,9254,-7014,-102,24,9
32767,31598,1740,-83,-23,6,23334,23514,-988,-48,-38,-4,9366,9084,-6960,-85,36,8
32767,31744,1744,-76,-33,4,23374,23512,-976,-38,-42,-1,9252,9012,-7014,-60,41,-2
32767,31810,1850,-82,-44,8,23432,23516,-956,-30,-39,-2,9230,9074,-6996,-23,30,-4
32767,31754,1782,-82,-54,9,23442,23442,-956,-31,-37,-6,9238,9146,-7014,0,29,7
32767,31710,1950,-73,-53,11,23472,23472,-894,-28,-42,-5,9182,9184,-6922,9,29,11
32767,31776,2080,-66,-43,8,23406,23588,-812,-31,-45,-9,9064,9244,-6896,14,25,8
32767,32002,2162,-79,-45,7,23462,23742,-842,-41,-45,-3,9122,9332,-7030,19,8,9
32767,31766,2118,-102,-46,4,23418,23782,-982,-57,-42,12,9274,9424,-7004,13,-4,10
32767,31596,1960,-97,-42,9,23390,23696,-980,-82,-45,4,9340,9430,-6944,-10,6,4
32767,31536,2034,-63,-29,18,23402,23540,-1128,-115,-30,-12,9202,9440,-6852,-32,22,1
32767,31544,2184,-42,-33,20,23416,23302,-1230,-130,-13,-22,9078,9420,-6778,-55,21,3
32767,31818,2186,-39,-45,17,23480,23154,-1066,-107,-13,-24,9046,9358,-6734,-67,10,2
32767,32006,2288,-43,-47,21,23468,23228,-946,-73,-13,-24,9252,9386,-6872,-75,10,-3
32767,32336,2302,-72,-40,12,23232,23494,-876,-50,-20,-18,9208,9420,-6886,-74,24,-8
32767,32020,2050,-142,-41,0,23226,23654,-880,-51,-42,-13,9350,9362,-6906,-100,25,-16
32767,31448,1728,-181,-35,-3,23272,23580,-1058,-67,-60,-10,9384,9220,-7020,-137,19,-21
32767,31328,1712,-154,-32,-1,23366,23322,-1298,-74,-70,-5,9350,9088,-7106,-146,25,-15
32767,31500,1838,-107,-28,15,23460,23108,-1454,-62,-66,-6,9192,9062,-7204,-133,26,-10
32767,31724,1922,-101,-32,18,23620,23078,-1348,-9,-51,-15,9206,9004,-7086,-130,2,-4
32767,32000,2220,-134,-34,13,23640,23204,-1262,23,-39,-16,9372,8842,-6958,-115,0,9
32767,31698,2390,-179,-27,6,23372,23430,-1000,35,-39,-9,9320,8744,-7016,-79,11,16
32767,31436,2266,-146,-7,3,23212,23602,-784,37,-51,2,9370,8652,-6966,-20,4,14
32767,31522,1986,-96,8,1,23282,23694,-746,36,-68,9,9424,8720,-6950,32,-12,14
32767,31560,1532,-97,6,-1,23336,23786,-676,17,-63,8,9604,8920,-6864,64,-7,9
32767,31310,1370,-99,-12,2,23384,23674,-750,-5,-59,-2,9538,9186,-6894,81,18,9
32767,31310,1248,-46,-31,11,23346,23500,-824,-30,-56,-16,9322,9394,-6888,80,43,10
32767,31428,1564,-2,-29,28,23444,23268,-816,-36,-59,-18,9054,9416,-6912,35,46,10
32767,31618,1854,34,-10,36,23544,23248,-944,-17,-55,-10,8960,9468,-6836,-2,41,10
32767,31766,2154,56,8,45,23398,23220,-1066,12,-53,-2,8934,9446,-6786,-17,30,16
32767,31908,2382,72,25,37,23398,23380,-1122,23,-56,2,9124,9420,-6702,-13,14,29
32767,31958,2378,36,20,19,23442,23572,-1260,12,-55,-3,9288,9296,-6738,-20,8,31
32767,31872,2322,-16,1,2,23504,23700,-1210,-42,-50,-14,9374,9098,-6732,-30,11,19
32767,31780,2222,-57,-9,1,23542,23516,-1222,-67,-46,-21,9294,9072,-6916,-26,13,10
32767,31656,2018,-73,-8,4,23570,23334,-1246,-71,-49,-15,9264,9110,-7020,-7,11,6
32767,31698,1950,-56,2,8,23522,23234,-1160,-42,-45,-8,9328,9180,-7034,1,8,1
32767,31802,1856,-48,7,10,23462,23398,-1152,-7,-42,-1,9378,9226,-7110,-21,12,-7
32767,31800,1766,-64,-1,7,23392,23534,-1144,12,-36,9,9382,9118,-7020,-36,13,-7
32767,31936,1710,-107,-22,3,23462,23702,-1056,9,-40,6,9540,9046,-7004,-34,18,-2
32767,31638,1660,-149,-37,7,23506,23764,-960,-25,-40,-2,9444,9056,-6984,-17,31,7
32767,31338,1672,-119,-39,11,23366,23524,-1002,-53,-43,-3,9286,9066,-6944,11,42,7
32767,31596,1764,-60,-42,10,23390,23320,-850,-45,-54,-7,9228,9148,-6834,35,39,1
32767,31958,1676,-46,-48,13,23560,23288,-1030,-18,-55,-5,9208,9254,-6958,43,29,-1
32767,31962,1582,-80,-58,12,23462,23304,-1092,3,-40,3,9418,9278,-6968,38,23,3
32767,31720,1722,-90,-67,10,23160,23372,-1212,8,-48,9,9334,9398,-7098,20,47,4
32767,31700,1860,-77,-65,7,23220,23372,-1154,-10,-63,3,9242,9458,-7012,-15,57,0
32767,31632,2002,-50,-51,11,23490,23378,-1122,-25,-68,-1,9330,9404,-6840,-58,57,1
32767,31570,2084,-27,-48,11,23470,23280,-1010,-27,-58,0,9302,9252,-6976,-90,58,8
32767,31860,1984,-12,-49,13,23460,23318,-1020,-6,-58,0,9238,8996,-7086,-85,55,11
32767,31868,1886,-36,-43,13,23450,23496,-1008,16,-61,1,9276,8838,-7098,-59,51,5
32767,31780,1996,-54,-38,9,23398,23600,-936,18,-61,1,9288,8786,-7168,-46,52,-8
32767,31672,1996,-58,-46,2,23328,23710,-974,10,-62,6,9268,8844,-7086,-36,54,-13
32767,31600,1920,-56,-51,7,23290,23662,-1024,-1,-68,11,9294,8936,-7038,-2,39,-5
32767,31500,1846,-41,-57,14,23504,23630,-962,1,-67,15,9244,8988,-7002,41,29,5
32767,31576,1814,-19,-62,22,23688,23658,-866,4,-64,8,9214,9122,-7034,77,25,11
32767,31718,1802,-17,-65,27,23414,23658,-852,-23,-67,13,9142,9162,-7072,93,23,15
32767,31996,1950,-28,-74,17,23318,23574,-754,-25,-84,17,9154,9158,-7042,94,24,17
32767,32012,2014,-84,-72,12,23360,23470,-796,-20,-93,18,9134,9246,-7034,82,23,16
32767,31658,2134,-80,-64,16,23372,23426,-874,-15,-91,23,9236,9342,-7036,71,13,16
32767,31822,2044,-14,-56,19,23514,23414,-1066,-10,-83,24,9390,9472,-6964,58,8,23
32767,32054,1932,-17,-56,21,23556,23442,-998,-16,-80,15,9366,9506,-6972,24,28,29
32767,32016,1926,-47,-58,16,23644,23462,-1120,-18,-72,5,9202,9442,-6970,-5,51,22
32767,31806,2220,-54,-38,18,23622,23406,-1072,-23,-66,-1,9022,9342,-6938,-29,52,12
32767,31738,2364,-22,-21,19,23550,23494,-976,-18,-69,2,9084,9274,-6982,-41,38,1
32767,31992,2244,-9,-9,16,23522,23552,-938,-12,-69,13,9174,9142,-7022,-51,25,-8
32767,31930,2084,-36,-3,15,23456,23636,-862,4,-72,21,9364,9130,-7068,-49,22,-9
32767,31864,1898,-56,-10,15,23428,23704,-954,10,-85,24,9386,9088,-7072,-38,32,-3
32767,31764,1844,-88,-23,21,23478,23692,-962,8,-98,24,9396,9092,-7062,-25,40,-2
32767,31430,1864,-84,-41,26,23530,23546,-1014,11,-108,26,9270,9114,-7088,-13,52,-11
32767,31708,1786,-54,-51,25,23666,23490,-976,18,-111,27,9186,9120,-7014,-9,60,-14
32767,31910,1872,-48,-47,26,23842,23518,-1018,38,-102,25,9210,9146,-7098,4,49,-11
32767,32032,1944,-49,-42,31,23696,23750,-1096,53,-89,18,9300,9172,-7224,22,41,-6
32767,32010,2108,-42,-41,36,23512,23832,-922,60,-95,23,9422,9192,-7330,32,53,-6
32767,32024,2156,-49,-39,30,23648,23952,-922,70,-101,18,9380,9252,-7210,32,69,-17
32767,31794,2180,-47,-29,30,23684,23918,-892,76,-93,16,9314,9320,-7248,29,75,-28
32767,31848,1862,-2,-21,28,23652,23874,-908,85,-89,21,9276,9398,-7100,23,66,-29
32767,31942,1706,5,-20,29,23618,23850,-942,98,-96,21,9218,9368,-7266,16,54,-16
32767,32036,1668,-13,-31,30,23648,23960,-836,102,-103,24,9160,9188,-7242,28,64,-10
32767,31988,1916,-27,-40,28,23772,23950,-790,90,-97,29,9086,9216,-7174,48,72,-7
32767,31952,1916,-24,-50,22,23776,23870,-812,85,-90,34,9106,9220,-7202,71,65,-2
32767,31952,1890,6,-49,24,23768,23798,-866,75,-90,29,9234,9300,-7178,100,57,-4
32767,31940,1848,38,-44,19,23652,23746,-836,70,-87,24,9348,9292,-7134,126,60,-9
32767,32080,1896,80,-33,15,23644,23780,-766,66,-87,26,9286,9354,-7166,132,83,-16
32767,32398,2080,83,-27,9,23738,23998,-734,52,-82,27,9162,9404,-7114,122,98,-23
32767,32504,2084,39,-33,8,23754,24060,-846,41,-77,27,9160,9418,-7168,107,89,-32
32767,32206,1980,18,-31,9,23750,23980,-826,25,-74,27,9240,9402,-7244,94,83,-42
32767,32126,2022,40,-31,5,23740,23924,-946,15,-70,25,9256,9386,-7320,75,102,-55
32767,32190,1900,48,-32,4,23870,23802,-892,19,-64,22,9136,9316,-7288,45,118,-74
32767,32068,1884,45,-29,15,23938,23842,-886,37,-54,19,9062,9248,-7302,20,119,-89
32767,32174,1958,56,-30,20,23828,23962,-982,55,-34,24,9106,9200,-7306,8,111,-93
32767,32450,2032,25,-30,20,23510,24230,-904,57,-37,39,9024,9140,-7362,4,110,-94
32767,32462,2160,-18,-38,19,23638,24250,-798,53,-66,69,9074,9092,-7368,3,112,-93
32767,32290,2066,-63,-50,15,23778,24166,-684,57,-76,75,9064,9022,-7426,10,107,-97
32767,32038,2056,-59,-48,18,23810,24224,-854,70,-81,60,9086,9012,-7482,28,92,-102
32767,31896,1800,-13,-47,26,23752,24350,-1034,68,-71,55,8964,9014,-7492,42,83,-106
32767,32166,1740,26,-48,30,23716,24154,-1034,86,-46,79,8964,8954,-7490,56,61,-114
32767,32610,1752,0,-57,25,23696,23996,-980,117,-50,117,9036,8862,-7622,54,38,-127
32767,32608,1998,-63,-68,30,23856,24166,-968,155,-89,119,9172,8810,-7746,60,47,-136
32767,32482,2156,-78,-69,36,24054,24596,-924,187,-99,101,9094,8870,-7784,83,81,-143
32767,32392,2336,-41,-58,35,24046,24616,-1126,170,-94,85,8896,9138,-7612,99,106,-135
32767,32412,2418,-6,-47,26,23786,24536,-1142,164,-102,59,8832,9286,-7396,81,84,-126
32767,32506,2200,-24,-55,13,23840,24418,-1206,165,-106,32,9210,8930,-7692,46,48,-127
32767,32620,2094,-61,-76,8,24224,24428,-1360,189,-75,24,9572,8628,-7884,37,80,-152
32767,32410,2118,-65,-93,5,24102,24660,-1192,177,-38,32,9526,8782,-7978,54,156,-160
32767,32576,2024,-20,-111,9,23834,24692,-1024,150,-17,58,9124,9054,-8002,50,207,-141
32767,32767,1984,-14,-101,-4,23720,24902,-754,114,-45,71,8822,9088,-8022,26,216,-118
32767,32404,2018,-41,-67,-5,23992,25032,-558,53,-59,55,8640,9016,-7982,10,202,-103
32767,31808,2088,-7,-43,-14,24036,24812,-610,4,-58,61,8694,8738,-7910,1,182,-96
32767,31790,1722,84,-28,-13,23728,24618,-706,-36,-59,62,8872,8494,-7806,-3,164,-106
32767,32308,1506,145,-39,-9,23624,24422,-696,-37,-71,60,9216,8212,-7914,12,159,-107
32767,32767,1642,136,-81,-8,23832,24264,-706,-13,-85,56,9114,8152,-8164,23,196,-107
32767,32767,1940,111,-122,-1,24038,24214,-728,14,-77,45,8780,8286,-8090,8,230,-106
32767,32767,2220,96,-147,2,24082,24380,-924,38,-55,32,8470,8420,-7934,-7,215,-94
32767,32767,2324,45,-137,-3,24008,24460,-1110,39,-35,22,8438,8480,-7898,-3,172,-88
32767,32767,2550,-51,-99,3,24038,24712,-1172,33,-32,16,8676,8472,-7994,-1,146,-92
32767,32550,2560,-81,-70,8,23896,24914,-1156,21,-31,18,8676,8422,-8092,-8,148,-100
32767,32238,2486,-36,-20,14,23824,25028,-1094,-12,-48,33,8608,8322,-8188,-35,159,-101
32767,32364,2526,-2,-5,18,23914,24966,-1138,-15,-70,53,8452,8352,-8198,-54,153,-97
32767,32302,2262,-21,-4,27,24046,24826,-1078,3,-82,70,8592,8140,-8308,-53,107,-90
32767,32222,2108,-45,-4,31,24130,24802,-1138,26,-92,76,8824,7982,-8320,-31,85,-92
32767,32348,2062,-64,-19,38,24038,24660,-1254,57,-88,70,9014,7900,-8466,6,87,-103
32767,32560,1964,-97,-38,44,24022,24758,-1300,114,-98,75,9034,7992,-8600,32,103,-103
32767,32614,1890,-141,-57,44,24204,25104,-1216,160,-105,76,8916,8100,-8688,32,125,-101
32767,32642,2190,-148,-58,54,24332,25208,-1268,138,-77,67,8814,8196,-8714,19,130,-100
32767,32767,2402,-113,-48,68,24184,25338,-1276,130,-67,67,8730,8276,-8662,9,125,-91
32767,32767,2376,-89,-31,72,24184,25242,-1226,105,-53,61,8664,8244,-8624,21,114,-71
32767,32574,2250,-61,-18,70,24040,25044,-1288,89,-58,49,8730,8176,-8830,46,107,-52
32767,32510,2000,-16,-12,67,23980,25122,-1084,123,-91,46,8666,8060,-8878,58,114,-52
32767,32564,2000,19,-6,66,24170,25166,-1100,152,-98,41,8594,8064,-8780,71,112,-49
32767,32767,1952,40,-19,54,24066,25124,-1314,164,-89,60,8652,8056,-8770,80,102,-41
32767,32767,1846,27,-33,52,23918,25466,-1090,221,-141,99,8684,8098,-8748,100,92,-35
32767,32767,1908,26,-46,57,24252,25640,-924,221,-144,93,8860,8228,-8892,124,88,-29
32767,32767,1866,30,-65,56,24304,25248,-1098,156,-98,89,8900,8310,-9006,123,106,-21
32767,32660,1912,49,-77,54,23754,24908,-1166,183,-131,111,8724,8252,-8938,93,133,-28
32767,32424,2122,123,-56,60,23852,25076,-1142,281,-203,114,8564,8190,-8814,66,123,-28
32767,32767,2244,206,-48,60,24456,25442,-1270,333,-220,97,8622,8032,-8864,69,102,-26
32767,32767,2330,197,-47,59,24742,25892,-1342,294,-191,84,8682,7958,-8920,81,109,-29
32767,32767,2568,180,-57,53,24612,26200,-1452,193,-136,76,8562,7958,-8830,110,111,-26
32767,32767,2398,177,-65,49,24614,26414,-1442,72,-87,51,8644,7978,-8972,142,85,-17
32767,32767,2290,145,-57,49,24666,26308,-1314,-40,-52,7,8754,7920,-9176,142,84,-26
32767,32592,2450,184,-55,72,24684,26010,-1310,-105,-12,-16,8700,8028,-9176,134,119,-40
32767,32606,2490,398,-38,81,24554,25800,-1344,-118,7,-23,8346,8142,-8890,130,137,-40
32767,32767,2148,430,-35,62,24438,25794,-1200,-104,13,-36,8306,8142,-8734,130,90,-28
32767,32767,1824,322,-34,51,24436,25924,-1174,-75,11,-45,8496,8012,-8796,123,62,-39
32767,32767,1678,165,-49,61,24338,26050,-1090,-55,5,-33,8600,8060,-9034,109,74,-53
32767,32767,1566,45,-94,76,24242,26152,-1056,-59,-26,-23,8510,8312,-9212,89,93,-52
32767,32767,1426,-22,-130,65,24336,26102,-1066,-70,-40,-23,8392,8474,-9334,45,90,-48
32767,32767,1470,-76,-127,75,24230,26062,-920,-64,-76,35,8442,8624,-9386,-11,77,-47
32767,32767,1642,-87,-125,72,24364,26012,-894,-51,-88,35,8468,8666,-9388,-71,77,-44
32767,32767,2078,-99,-136,49,24290,25976,-992,-79,-87,25,8574,8562,-9346,-124,84,-34
32767,32767,2204,-148,-143,40,24342,25756,-928,-93,-89,27,8532,8202,-9394,-160,95,-27
32767,32767,2444,-180,-145,33,24508,25616,-956,-83,-96,21,8494,8000,-9306,-156,87,-17
32767,32767,2596,-172,-143,4,24514,25632,-872,-58,-91,18,8496,7742,-9248,-140,75,-8
32767,32767,2614,-122,-129,35,24436,25796,-936,-33,-88,25,8442,7534,-9316,-92,72,-5
32767,32767,2852,-108,-92,30,24390,25988,-886,-33,-92,26,8276,7696,-9340,-18,69,3
32767,32767,2848,-69,-82,30,24504,25982,-920,-61,-90,23,8204,7910,-9352,32,47,18
32767,32767,2742,-110,-77,21,24430,25844,-1018,-83,-82,23,8314,8064,-9288,38,22,28
32767,32767,2686,-160,-60,18,24538,25768,-1036,-67,-89,34,8408,8202,-9204,33,1,31
32767,32767,2532,-131,-35,11,24726,25638,-1192,-38,-79,30,8450,8226,-9138,24,-8,41
32767,32767,2502,-90,-34,7,24530,25802,-1218,-33,-75,30,8420,8242,-9190,19,-2,45
32767,32767,2388,-104,-27,9,24314,25956,-1294,-40,-74,34,8412,8222,-9250,2,-8,44
32767,32767,2512,-152,-29,-4,24338,26038,-1228,-71,-69,37,8592,8204,-9170,-16,-22,42
32767,32767,2496,-193,-38,-12,24518,25962,-1176,-107,-61,43,8554,8158,-9170,-23,-23,38
32767,32767,2416,-211,-33,-16,24590,25880,-1130,-126,-46,39,8592,8072,-9214,-23,-14,32
32767,32767,2506,-200,-12,-11,24646,25758,-1038,-145,-25,34,8554,8172,-9206,-22,-9,43
32767,32767,2302,-127,-5,-15,24442,25708,-1022,-156,-3,33,8626,8094,-9186,-18,-19,53
32767,32767,2016,-96,2,-25,24346,25540,-842,-146,-5,41,8780,8018,-9324,-15,-13,48
32767,32767,2040,-126,0,-21,24476,25534,-876,-120,-20,34,8664,8084,-9340,-11,21,28
32767,32767,2112,-133,-14,-21,24546,25510,-878,-110,-23,28,8430,8096,-9194,-30,35,15
32767,32767,2184,-135,-29,-37,24422,25428,-868,-99,-16,26,8370,8200,-9148,-58,28,15
32767,32767,2140,-156,-29,-42,24656,25566,-1004,-65,-6,29,8412,8276,-9110,-72,20,27
32767,32767,2146,-163,-27,-47,24596,25630,-1122,-63,14,35,8516,8268,-9182,-79,12,26
32767,32767,2048,-161,-33,-48,24254,25612,-1090,-84,8,28,8622,8264,-9158,-83,11,20
32767,32767,2026,-156,-49,-48,24514,25628,-976,-104,-12,13,8624,8172,-9126,-98,19,12
32767,32767,2290,-168,-54,-38,24730,25792,-1008,-90,-1,25,8630,8208,-9226,-112,31,9
32767,32767,2524,-174,-49,-33,24446,25738,-1026,-123,12,26,8394,8132,-9110,-120,34,5
32767,32767,2482,-173,-43,-31,24350,25724,-894,-128,3,3,8460,8032,-9054,-104,15,1
32767,32767,2232,-161,-33,-12,24600,25834,-998,-124,4,10,8686,8012,-9090,-74,2,3
32767,32767,2152,-163,-20,45,24452,25754,-902,-162,16,25,8870,8002,-9196,-56,15,3
32767,32767,2276,-144,-33,18,24436,25792,-1070,-172,16,17,8716,8082,-9182,-63,47,-3
32767,32767,2218,-148,-48,-22,24442,25856,-1024,-185,19,33,8398,8134,-9144,-89,61,-13
32767,32767,2256,-133,-47,8,24418,25626,-1106,-219,23,29,8320,8204,-9028,-104,36,-15
32767,32767,2280,-173,-31,49,24378,25530,-1018,-226,14,28,8446,8172,-9080,-103,4,-5
32767,32767,2306,-180,-55,49,24546,25520,-1012,-231,24,36,8694,8042,-9182,-120,17,-7
32767,32767,2326,-198,-52,52,24626,25560,-1164,-215,41,61,8574,8030,-9046,-138,41,-16
32767,32767,2192,-171,-47,75,24308,25416,-1090,-233,32,51,8478,7992,-9156,-144,36,-21
32767,32767,2204,-171,-50,63,24282,25454,-1026,-216,25,35,8538,8002,-9176,-138,24,-19
32767,32767,2230,-200,-33,95,24646,25454,-1078,-216,29,53,8590,8084,-9198,-153,29,-20
32767,32767,2352,-256,-39,71,24384,25400,-942,-201,28,69,8612,8064,-9232,-171,37,-21
32767,32767,2284,-241,-45,90,24346,25264,-926,-163,13,31,8520,7962,-9210,-197,42,-26
32767,32767,2110,-258,-59,57,24622,25282,-1008,-138,10,37,8532,7900,-9158,-209,40,-30
32767,32767,2252,-265,-36,122,24314,25070,-792,-114,-1,41,8706,7856,-9270,-177,33,-25
32767,32767,2316,-265,-32,135,24240,24996,-748,-88,-17,18,8744,7890,-9234,-161,45,-22
32767,32767,2094,-276,-53,58,24476,25200,-816,-47,-28,27,8596,7870,-9222,-174,63,-30
32767,32767,1952,-283,-46,94,24476,25270,-808,-52,-12,37,8512,7810,-9216,-178,64,-28
32767,32767,2338,-247,-39,116,24162,25308,-788,-58,-9,18,8506,7768,-9260,-152,53,-18
32767,32370,2158,-267,-61,58,24286,25460,-854,-50,-16,14,8636,7822,-9246,-115,47,-5
32767,32426,2368,-246,-51,145,24190,25284,-834,-72,-22,29,8736,7926,-9292,-95,48,2
32767,32546,2528,-211,-27,112,24354,25430,-808,-93,-16,12,8648,7794,-9194,-85,53,5
32767,31686,2462,-137,-40,52,24462,25578,-946,-99,-1,50,8476,7670,-9030,-70,54,0
32767,32694,2536,-62,-23,83,24460,25490,-908,-140,15,67,8350,7674,-9092,-55,42,3
32767,32562,2362,-80,-36,52,24202,25452,-878,-145,10,51,8314,7742,-9092,-27,20,8
32767,32706,2522,-119,-41,54,24266,25510,-790,-193,11,28,8468,7800,-9108,-12,11,4
32767,32648,2346,-110,-41,33,24678,25484,-982,-164,8,69,8592,7912,-9134,-16,19,2
32767,32628,2334,-103,-27,59,24272,25268,-794,-193,17,70,8540,7844,-8990,-46,34,-7
32767,32358,2528,-81,-48,23,24504,25392,-944,-155,-2,52,8410,7768,-8952,-77,33,-21
32767,32767,2532,-79,-19,96,24674,25406,-920,-133,4,88,8362,7802,-8966,-95,13,-34
32767,32767,2342,-115,-17,110,24272,25304,-866,-145,8,69,8526,7900,-9194,-92,-1,-32
32767,32767,2320,-165,-3,115,24380,25458,-946,-121,-3,45,8660,7946,-9244,-101,23,-20
32767,32668,2416,-180,-23,50,24530,25376,-934,-149,9,58,8590,7892,-9182,-142,41,-27
32767,32767,2280,-175,-15,134,24230,25152,-986,-131,2,70,8550,7784,-9176,-162,36,-28
32767,32767,2334,-218,-20,71,24360,25318,-842,-114,-5,70,8612,7698,-9024,-150,23,-28
32767,32700,2304,-220,-28,101,24650,25484,-974,-116,10,100,8660,7700,-9104,-122,23,-21
32767,32767,2260,-175,2,151,24510,25506,-886,-136,30,120,8624,7796,-9174,-104,35,-10
32767,32767,2518,-174,13,106,24420,25560,-818,-193,33,92,8494,7748,-9154,-89,43,-1
32767,32742,2112,-155,-27,110,24458,25628,-904,-202,41,86,8506,7758,-9172,-73,41,2
32767,32180,2228,-201,-19,115,24234,25358,-842,-239,40,96,8660,7620,-9116,-66,28,-3
32767,32767,2210,-151,-18,143,24214,24962,-702,-205,9,82,8684,7550,-9106,-46,32,-4
32767,32767,2276,-177,-13,59,24632,24988,-858,-158,7,82,8620,7626,-9102,-48,51,-8
32767,32766,2058,-129,-18,98,24426,25122,-826,-117,21,104,8446,7690,-8978,-68,59,-16
32767,32767,2188,-110,-11,130,24310,25288,-964,-97,25,89,8432,7784,-8930,-79,43,-14
32767,32767,2146,-139,-3,184,24244,25486,-834,-92,12,77,8480,7834,-9042,-78,29,-10
32767,32767,2456,-170,-18,147,24460,25424,-840,-146,14,66,8612,7986,-9198,-72,38,-7
32767,32767,2056,-227,-50,196,24502,25372,-864,-138,30,89,8582,8038,-9236,-95,59,-9
32767,32767,2392,-259,-39,137,24124,25150,-690,-175,26,70,8538,7878,-9256,-153,72,-12
32767,32428,2728,-250,-25,132,24378,25336,-808,-136,16,64,8420,7696,-9212,-177,74,-17
32767,32767,2412,-166,-23,157,24300,25264,-772,-154,20,85,8402,7662,-9212,-168,65,-11
32767,32750,2178,-177,-2,123,24214,25246,-734,-151,16,74,8544,7590,-9142,-147,50,-3
32767,32738,2262,-153,-21,143,24554,25304,-934,-135,15,79,8614,7560,-9290,-118,52,4
32767,32767,1904,-181,-31,172,24272,25110,-812,-152,16,75,8512,7446,-9138,-112,61,-1
32767,32686,2484,-216,-30,89,24286,25206,-808,-141,13,60,8388,7512,-9256,-96,61,-3
32767,32767,2232,-178,-19,141,24362,25262,-944,-138,16,74,8324,7526,-9230,-75,46,-4
32767,32284,2540,-106,-26,137,24358,25266,-850,-151,27,85,8436,7614,-9164,-62,31,-3
32767,32767,2272,-115,-25,167,24460,25384,-994,-172,33,87,8450,7702,-9200,-73,33,-4
32767,32767,2362,-161,-16,147,24264,25440,-992,-194,44,86,8486,7630,-9162,-89,38,-8
32767,32767,2452,-211,-30,107,24276,25412,-958,-225,43,80,8454,7690,-9152,-90,33,-8
32767,32767,2196,-200,-17,124,24316,25350,-882,-229,42,84,8482,7668,-9222,-95,26,-9
32767,32358,2260,-175,-15,83,24228,25096,-960,-220,38,90,8572,7678,-9152,-111,31,-11
32767,32712,2376,-172,-29,98,24266,24986,-914,-200,28,76,8534,7642,-9158,-125,46,-17
32767,32767,2510,-191,-16,140,24456,25132,-1026,-149,28,84,8370,7476,-9198,-155,45,-28
32767,32767,2226,-174,-19,120,24186,25218,-980,-141,27,94,8500,7414,-9186,-156,26,-28
32767,32722,2130,-181,-6,120,24310,25310,-984,-122,8,87,8548,7422,-9242,-139,27,-27
32767,32767,2068,-153,-22,166,24374,25276,-846,-158,13,79,8584,7556,-9334,-124,36,-30
32767,32767,2046,-219,-26,148,24526,25254,-962,-166,25,88,8542,7628,-9276,-126,47,-31
32767,32767,2424,-286,-34,171,24354,25122,-826,-174,32,84,8496,7600,-9358,-141,53,-33
32767,32566,2032,-272,-42,173,24164,25150,-872,-164,31,67,8494,7580,-9342,-145,55,-32
32767,31968,2140,-228,-25,145,24166,25072,-872,-142,16,75,8564,7496,-9444,-144,58,-33
32767,32767,2178,-148,-8,185,24234,25118,-744,-123,0,88,8588,7410,-9328,-142,62,-31
32767,32767,2076,-181,-26,146,24496,25338,-850,-102,10,100,8630,7316,-9306,-132,71,-28
32767,32767,2296,-218,-33,152,24338,25384,-804,-116,20,105,8494,7272,-9306,-128,78,-26
32767,32090,2302,-215,-39,124,24216,25418,-876,-143,16,89,8392,7288,-9296,-114,68,-28
32767,32322,1794,-151,-40,186,24224,25272,-806,-158,7,73,8328,7384,-9220,-90,53,-24
32767,32720,2188,-134,-23,176,24400,25112,-870,-168,5,66,8458,7438,-9308,-68,39,-15
32767,32767,2322,-163,-31,133,24306,25080,-852,-143,2,80,8548,7370,-9356,-66,46,-13
32767,32468,2196,-180,-41,149,24330,24954,-768,-140,-1,77,8466,7332,-9314,-85,66,-26
32767,32767,2358,-158,-36,153,24346,25140,-870,-87,-10,91,8254,7342,-9248,-88,69,-35
32767,32767,2172,-136,-24,178,24372,25296,-902,-76,-4,97,8284,7400,-9302,-77,51,-29
32767,32767,2280,-183,-1,149,24250,25354,-856,-82,-5,92,8490,7522,-9418,-70,38,-13
32767,32672,2310,-177,-11,159,24374,25418,-886,-121,2,83,8578,7438,-9418,-83,55,-7
32767,32404,2284,-167,-23,146,24516,25430,-878,-133,9,100,8480,7404,-9394,-110,69,-15
32767,32552,2554,-163,-21,145,24436,25296,-938,-155,19,96,8468,7298,-9352,-120,67,-22
32767,32767,2258,-163,-13,171,24222,25262,-866,-162,19,85,8460,7244,-9372,-125,58,-26
32767,32700,2170,-170,-21,118,24316,25230,-904,-152,15,89,8468,7210,-9372,-112,63,-26
32767,32767,2254,-164,-4,143,24292,25196,-896,-143,12,91,8390,7204,-9492,-93,69,-24
32767,32767,2190,-117,-2,128,24376,25190,-936,-127,6,93,8334,7240,-9406,-78,67,-19
32767,32767,2162,-154,0,126,24496,25270,-852,-126,4,96,8452,7156,-9360,-77,58,-20
32767,32767,2132,-145,-19,145,24544,25310,-812,-124,14,88,8406,7176,-9306,-68,57,-24
32767,32750,2094,-173,-7,151,24442,25334,-880,-121,20,91,8420,7244,-9436,-49,58,-26
32767,32767,2086,-153,-12,162,24190,25218,-906,-138,27,87,8440,7396,-9454,-41,55,-27
32767,32767,2020,-154,-12,150,24234,25298,-894,-124,12,79,8440,7430,-9538,-58,60,-28
32767,32767,2104,-180,-13,147,24288,25234,-782,-129,9,87,8472,7368,-9554,-83,71,-28
32767,32646,2248,-200,-15,146,24356,25200,-896,-96,0,90,8494,7286,-9520,-107,80,-33
32767,32767,2118,-180,-21,155,24416,25296,-974,-74,5,86,8434,7208,-9474,-116,84,-38
32767,32767,2190,-173,-9,153,24312,25322,-904,-77,10,82,8346,7168,-9378,-116,81,-40
32767,32767,1912,-164,-17,143,24352,25402,-920,-90,15,75,8316,7156,-9472,-97,73,-32
32767,32767,2290,-157,1,142,24242,25220,-882,-112,12,71,8396,7146,-9528,-83,72,-28
32767,32767,1964,-151,-29,112,24384,25266,-1088,-68,8,77,8418,7086,-9582,-86,74,-36
32767,32767,2178,-175,-23,137,24388,25306,-854,-96,11,72,8406,7078,-9618,-87,79,-44
32767,32716,2140,-157,-21,143,24588,25362,-914,-87,17,69,8306,7064,-9600,-83,87,-46
32767,32767,2166,-138,-18,140,24418,25364,-776,-116,29,62,8270,7154,-9640,-75,91,-42
32767,32600,2234,-134,-7,134,24254,25284,-756,-113,27,54,8318,7202,-9596,-65,81,-41
32767,32602,2074,-144,-18,127,24202,25200,-864,-83,14,53,8466,7210,-9654,-70,82,-46
32767,32767,2222,-161,-22,138,24132,25054,-758,-56,-8,55,8438,7044,-9708,-91,96,-53
32767,32628,1964,-170,-15,131,24478,25276,-968,-5,-22,63,8414,6994,-9694,-111,109,-65
32767,32767,2020,-115,-11,115,24338,25466,-898,-14,-17,80,8378,7018,-9690,-113,117,-64
32767,32767,1952,-103,2,129,24112,25554,-1044,-49,-8,66,8320,6934,-9676,-116,115,-62
32767,32767,1994,-96,-12,119,24276,25470,-1122,-73,-13,62,8296,6880,-9692,-110,107,-59
32767,32767,1950,-138,-14,139,24244,25288,-1122,-92,10,57,8308,6844,-9650,-86,93,-51
32767,32767,2102,-148,-27,110,24324,25288,-1124,-86,12,66,8364,6854,-9706,-45,86,-48
32767,32767,2138,-177,-46,114,24326,25356,-1040,-95,14,76,8394,6924,-9854,-17,90,-46
32767,32674,2154,-153,-28,111,24508,25414,-1152,-77,27,81,8434,6848,-9836,-14,95,-49
32767,32200,2390,-93,-20,102,24490,25432,-954,-88,32,67,8390,6878,-9766,-21,106,-61
32767,32762,2270,-22,-3,124,24394,25332,-1064,-89,38,38,8262,6802,-9766,-29,103,-66
32767,32767,2232,-14,24,117,24238,25248,-966,-76,33,28,8172,6772,-9804,-32,99,-68
32767,32767,2204,-81,-14,85,24134,25220,-840,-37,13,34,8210,6758,-9818,-24,95,-76
32767,32767,2058,-170,-13,109,24224,25342,-918,8,-9,37,8316,6790,-9838,-21,101,-85
32767,32494,2022,-149,-17,110,24346,25524,-792,39,-24,38,8392,6728,-9942,-34,109,-98
32767,32767,1658,-80,5,113,24438,25644,-1032,44,-31,33,8432,6668,-9874,-52,115,-109
32767,32767,1778,-87,14,112,24570,25720,-928,23,-26,39,8272,6716,-9974,-69,128,-120
32767,32767,1780,-112,-4,116,24446,25636,-986,-20,-14,38,8268,6720,-10058,-59,123,-113
32767,32767,1922,-171,-11,125,24398,25546,-954,-41,-14,32,8294,6806,-10202,-46,116,-104
32767,32636,2018,-188,-34,130,24338,25350,-880,-30,-17,37,8298,6770,-10172,-51,121,-91
32767,32642,1970,-144,-24,122,24386,25500,-1038,-5,-22,33,8290,6514,-10174,-50,122,-88
32767,32554,1978,-85,-24,106,24438,25574,-1052,-1,-8,31,8286,6350,-10152,-33,122,-91
32767,32767,2206,-54,-6,100,24430,25662,-1026,-4,-11,39,8198,6310,-10206,-4,126,-89
32767,32767,2334,-36,-7,96,24294,25572,-988,-28,-3,32,8110,6340,-10148,40,120,-86
32767,32767,2398,-54,-6,73,24288,25524,-1004,-46,-12,24,8266,6524,-10082,84,89,-80
32767,32767,2170,-63,1,60,24362,25460,-1038,-53,-12,30,8322,6514,-10000,91,82,-68
32767,32767,2200,-50,-1,57,24338,25362,-954,-34,-12,39,8394,6546,-10164,81,76,-69
32767,32767,2102,-56,-2,60,24386,25506,-1108,-8,-17,33,8324,6580,-10216,71,89,-78
32767,32767,2108,-66,-7,67,24364,25584,-1106,-11,-10,30,8182,6624,-10234,59,97,-83
32767,32767,1994,-50,-1,77,24362,25604,-1254,-21,-9,25,8210,6620,-10262,39,98,-85
32767,32767,2030,-29,5,73,24288,25654,-1160,-28,-12,25,8260,6580,-10210,7,91,-86
32767,32767,1956,-62,0,67,24146,25606,-1104,-38,-10,27,8440,6472,-10182,-18,96,-82
32767,32767,1972,-89,-22,64,24304,25546,-1272,-22,-11,36,8374,6272,-10172,-28,114,-83
32767,32767,1954,-100,-27,61,24280,25564,-1134,-19,-15,39,8196,6266,-10228,-37,113,-100
32767,32767,1962,-78,-11,69,24334,25674,-1338,-22,-6,27,8160,6244,-10314,-38,104,-107
32767,32767,2074,-48,-4,74,24632,25728,-1200,-13,0,35,8246,6194,-10306,-24,93,-104
32767,32767,2090,-55,-10,78,24504,25704,-1136,-38,17,23,8320,6104,-10402,1,89,-100
32767,32767,2056,-88,-10,78,24320,25780,-1138,-28,23,14,8362,6126,-10400,15,95,-106
32767,32767,1894,-90,-15,61,24166,25682,-1034,-27,4,20,8306,6110,-10500,19,102,-109
32767,32767,1848,-113,-14,58,24172,25606,-1000,-15,-19,24,8296,6050,-10470,13,110,-109
32767,32767,1926,-80,-21,56,24278,25706,-1106,7,-28,34,8200,5998,-10412,6,111,-118
32767,32767,1962,-74,-7,74,24456,25786,-1190,-10,-16,43,8220,6010,-10528,15,105,-121
32767,32767,1992,-54,3,84,24292,25814,-1196,-35,-10,16,8196,5964,-10550,17,113,-123
32767,32767,1908,-53,-21,85,24276,25766,-1216,-65,-1,19,8170,6046,-10560,18,114,-119
32767,32767,1722,-60,12,84,24296,25620,-1126,-58,2,40,8154,6042,-10638,21,107,-105
32767,32767,1728,-56,-4,74,24356,25564,-1274,-37,4,29,8214,6024,-10692,33,105,-95
32767,32767,1822,-71,-33,75,24304,25526,-1154,-28,3,14,8310,6010,-10668,40,100,-98
32767,32767,1974,-125,-15,77,24260,25674,-1310,-4,-2,12,8314,5912,-10716,32,102,-107
32767,32767,2194,-64,-29,74,24204,25754,-1278,12,-4,10,8284,5798,-10654,27,121,-111
32767,32767,2324,-21,-5,77,24132,25798,-1338,8,-15,6,8120,5824,-10606,20,123,-119
32767,32767,2146,-1,18,78,24276,25786,-1294,11,-19,13,8020,5804,-10644,26,103,-115
32767,32767,2176,-37,16,75,24202,25848,-1364,13,-15,29,8162,5828,-10702,38,83,-106
32767,32767,2000,-94,-1,70,24068,25822,-1438,-9,-9,32,8210,5724,-10744,31,91,-109
32767,32767,1952,-145,-13,74,24242,25822,-1482,-12,-5,33,8194,5746,-10752,7,100,-119
32767,32767,1798,-128,9,77,24098,25704,-1432,-33,9,24,8146,5726,-10816,-8,102,-129
32767,32767,1862,-73,-2,67,24186,25660,-1406,-33,4,12,8166,5708,-10874,-22,99,-128
32767,32767,1884,-84,10,65,24362,25710,-1522,-12,17,16,8214,5650,-10960,-24,95,-120
32767,32767,1964,-77,-8,75,24120,25744,-1474,16,24,16,8296,5498,-11002,-9,103,-113
32767,32767,1912,-105,-6,68,24020,25908,-1494,35,16,18,8238,5338,-10948,8,109,-117
32767,32767,1866,-116,-8,52,24140,26000,-1476,36,-1,24,8222,5244,-10888,18,119,-130
32767,32767,1756,-86,-8,48,24358,25976,-1466,23,2,9,8156,5228,-10908,26,116,-147
32767,32767,1850,-49,9,55,24378,25958,-1450,5,16,8,8092,5226,-10964,41,109,-161
32767,32767,1800,-29,6,53,24184,25824,-1494,-9,20,11,8134,5236,-10956,56,102,-164
32767,32767,1670,-78,23,57,24062,25702,-1394,-2,5,3,8220,5212,-11066,58,112,-160
32767,32767,1700,-100,7,74,24214,25766,-1284,17,-6,5,8232,5154,-11116,51,126,-160
32767,32767,1588,-99,17,60,24272,25888,-1402,28,4,20,8074,5084,-11156,29,142,-163
32767,32767,1566,-96,22,66,24212,25940,-1370,15,13,17,8168,5084,-11144,35,132,-169
32767,32767,1550,-72,29,74,24138,25978,-1438,-6,22,3,8248,5054,-11238,51,120,-172
32767,32767,1568,-40,8,78,23890,25850,-1450,-13,12,-1,8372,4986,-11202,68,131,-176
32767,32767,1608,-70,7,69,23950,25776,-1472,-8,-2,8,8332,4930,-11250,72,156,-185
32767,32767,1750,-82,14,60,24264,25724,-1444,17,-14,16,8158,4854,-11284,70,166,-185
32767,32767,1854,-48,15,58,24324,25836,-1536,22,-12,7,8104,4802,-11262,79,152,-176
32767,32767,1762,-48,24,58,24374,25912,-1644,12,13,-3,8166,4766,-11298,98,136,-170
32767,32767,1636,-83,7,52,24198,26070,-1644,-1,22,-9,8200,4748,-11314,126,130,-170
32767,32767,1804,-70,8,55,24076,25960,-1540,-22,19,-22,8140,4740,-11348,114,136,-169
32767,32767,1770,-29,15,65,24232,25848,-1584,-19,13,-28,8026,4716,-11368,101,138,-173
32767,32767,1786,-14,21,60,24106,25850,-1668,19,15,-22,8000,4654,-11308,98,124,-179
32767,32767,1658,-42,21,52,24046,25982,-1732,42,11,-14,8194,4656,-11254,113,102,-182
32767,32767,1760,-102,-3,59,24176,26056,-1680,47,-4,-18,8298,4650,-11416,116,102,-184
32767,32767,1660,-145,2,53,24278,26126,-1744,34,2,-30,8304,4546,-11462,82,121,-191
32767,32767,1804,-111,7,55,24352,26100,-1680,17,5,-29,8164,4494,-11498,51,140,-200
32767,32767,1710,-54,45,59,24310,26000,-1726,2,15,-41,8056,4472,-11492,46,128,-204
32767,32767,1742,-28,52,55,24170,26026,-1604,1,13,-43,8084,4458,-11508,44,104,-199
32767,32767,1584,-56,53,52,24090,26002,-1688,-5,8,-35,8290,4340,-11524,45,82,-194
32767,32767,1586,-132,29,53,24166,26044,-1646,8,-1,-32,8430,4246,-11622,67,97,-196
32767,32767,1502,-179,-4,40,24146,26012,-1714,6,-3,-37,8318,4216,-11678,75,132,-200
32767,32767,1598,-142,5,37,24226,25984,-1754,21,-3,-43,8184,4100,-11758,61,144,-207
32767,32767,1540,-62,25,36,24178,26024,-1696,25,-6,-49,8080,4046,-11802,67,128,-212
32767,32767,1612,-7,40,39,23934,26006,-1708,25,-8,-50,8136,4036,-11738,75,112,-205
32767,32767,1734,-40,27,24,23960,26066,-1716,21,-21,-43,8256,3870,-11720,82,110,-192
32767,32767,1646,-110,6,14,24124,26076,-1734,18,-27,-41,8260,3946,-11702,101,112,-189
32767,32767,1566,-118,19,14,24256,26114,-1830,8,-23,-38,8328,3964,-11780,120,102,-179
32767,32767,1494,-65,16,11,24038,26070,-1834,-1,-12,-42,8292,3894,-11844,119,95,-171
32767,32767,1568,-34,26,18,24026,25966,-1864,3,-11,-49,8286,3906,-11772,98,98,-171
32767,32767,1570,-38,14,12,24024,25920,-1818,1,-19,-51,8234,3826,-11794,78,97,-177
32767,32767,1706,-89,9,5,23956,25946,-1838,8,-12,-52,8258,3740,-11874,77,91,-174
32767,32767,1646,-122,-12,9,23956,25962,-1886,22,-14,-39,8260,3734,-11850,87,88,-165
32767,32767,1594,-117,-5,5,24152,26006,-1960,11,-16,-46,8242,3624,-11870,90,79,-148
32767,32767,1526,-60,6,2,24008,26054,-1956,0,-8,-62,8276,3548,-11904,86,82,-143
32767,32767,1520,-46,6,-4,23778,25982,-1904,-14,-11,-65,8304,3442,-11884,77,83,-149
32767,32767,1600,-46,11,-3,23720,25896,-2050,-7,-17,-57,8310,3446,-11808,80,79,-155
32767,32767,1656,-53,21,-9,23822,25742,-2040,7,-25,-55,8294,3474,-11904,82,76,-153
32767,32767,1724,-73,30,-4,24010,25758,-2116,25,-22,-65,8276,3462,-11848,84,79,-149
32767,32767,1562,-100,15,-1,24044,25874,-2084,32,-15,-68,8318,3420,-11816,93,75,-144
32767,32767,1330,-104,23,-17,23762,25912,-2112,27,-3,-78,8390,3364,-11908,90,73,-138
32767,32767,1360,-58,29,-18,23684,25992,-2076,27,-15,-72,8378,3270,-11960,68,80,-146
32767,32767,1456,-52,21,-19,23832,25910,-1930,9,-17,-77,8272,3188,-12034,56,86,-155
32767,32767,1434,-98,21,-13,24026,25884,-1982,4,-13,-86,8326,3194,-12014,57,73,-150
32767,32767,1456,-119,20,-23,23922,25792,-1998,-2,-6,-88,8388,3146,-11968,70,64,-135
32767,32767,1332,-114,13,-24,23860,25832,-2030,14,-2,-86,8370,3040,-12028,70,73,-130
32767,32767,1338,-109,9,-16,23892,25822,-2028,15,-11,-84,8314,2922,-12046,63,79,-146
32767,32767,1372,-102,8,-15,23916,25902,-1906,2,-5,-86,8248,2864,-12110,67,76,-166
32767,32767,1508,-82,32,-27,23776,25996,-1968,6,-15,-88,8340,2816,-12008,75,65,-168
32767,32767,1410,-67,33,-29,23684,25950,-1936,5,-22,-90,8426,2798,-11970,91,59,-158
32767,32767,1188,-70,36,-27,23850,25952,-2042,6,-35,-81,8452,2806,-12046,117,62,-148
32767,32767,1066,-69,29,-33,23902,25924,-2084,4,-39,-76,8426,2742,-12054,125,67,-158
32767,32767,1266,-70,36,-31,23714,25836,-2040,-5,-27,-84,8430,2768,-12132,114,67,-170
32767,32767,1166,-63,15,-38,23812,25798,-2212,-2,-31,-89,8348,2786,-12084,96,68,-171
32767,32767,1192,-71,3,-28,23970,25770,-2118,-17,-28,-93,8376,2766,-12050,86,63,-165
32767,32767,1298,-103,20,-59,23760,25730,-2146,-35,-17,-106,8360,2710,-11958,90,49,-157
32767,32767,1202,-67,17,-47,23486,25600,-2080,-23,-11,-101,8472,2598,-12068,85,40,-153
32767,32767,1362,-63,20,-44,23456,25442,-2096,-4,-24,-84,8468,2570,-12158,74,38,-152
32767,32767,1188,-74,18,-50,23652,25510,-2004,29,-29,-86,8456,2518,-12096,83,39,-149
32767,32767,1406,-73,14,-41,23922,25658,-2088,25,-29,-87,8468,2464,-12070,98,43,-141
32767,32767,1462,-99,13,-45,23826,25730,-2118,-3,-11,-96,8394,2506,-11998,103,43,-138
32767,32767,1544,-114,16,-47,23770,25732,-2172,-38,-5,-102,8384,2486,-12014,100,39,-136
32767,32767,1516,-101,29,-47,23600,25652,-2112,-56,-3,-101,8374,2424,-12042,95,35,-138
32767,32767,1352,-65,28,-52,23494,25536,-2188,-42,-5,-98,8522,2376,-12010,91,29,-146
32767,32767,1194,-80,31,-49,23454,25544,-2052,-19,-32,-86,8596,2368,-11934,85,30,-143
32767,32767,1060,-106,34,-58,23638,25590,-2152,-5,-40,-87,8602,2228,-11906,75,39,-139
32767,32767,1118,-100,13,-50,23808,25674,-2222,18,-32,-87,8500,2132,-11868,69,50,-147
32767,32767,1036,-103,19,-58,23692,25668,-2266,-5,-34,-94,8442,2106,-12012,57,54,-154
32767,32767,1138,-90,8,-54,23560,25682,-2058,-18,-29,-115,8460,1992,-11974,44,52,-165
32767,32767,1134,-63,11,-50,23618,25560,-2148,-40,-22,-109,8472,1914,-11932,37,40,-168
32767,32767,1218,-47,41,-50,23504,25376,-2206,-34,-24,-101,8490,1934,-11902,46,27,-157
32767,32767,1226,-36,49,-59,23470,25430,-2154,-28,-22,-103,8584,1914,-11880,62,16,-145
32767,32767,1010,-56,32,-48,23462,25432,-2230,-24,-25,-92,8668,1934,-11892,80,2,-140
32767,32767,1032,-128,20,-59,23554,25432,-2226,-22,-19,-86,8676,1950,-12036,81,2,-148
32767,32767,988,-132,-4,-42,23576,25322,-2270,-50,-11,-98,8692,1924,-12130,59,12,-155
32767,32767,1060,-111,8,-39,23538,25258,-2264,-64,0,-114,8628,1936,-12048,39,27,-150
32767,32767,1312,-123,22,-51,23202,25154,-2272,-43,15,-121,8526,1940,-12026,14,37,-147
32767,32767,1206,-84,21,-48,23010,25232,-2178,-13,-8,-113,8488,1764,-12030,11,33,-143
32767,32767,1088,-99,52,-50,23240,25298,-2214,0,-30,-96,8586,1692,-11936,32,19,-135
32767,32767,1020,-87,31,-52,23414,25298,-2172,-12,-44,-98,8686,1580,-11936,34,14,-127
32767,32767,948,-105,36,-69,23488,25238,-2280,-35,-33,-134,8710,1516,-11870,31,16,-126
32767,32767,900,-97,32,-58,23390,25212,-2228,-46,-27,-151,8708,1468,-11928,40,19,-125
32767,32767,840,-90,31,-52,23412,25188,-2222,-45,-30,-136,8598,1564,-11996,44,19,-130
32767,32767,990,-59,37,-52,23392,25180,-2246,-32,-21,-129,8634,1488,-11842,34,7,-142
32767,32767,926,-68,31,-49,23274,25298,-2236,-28,-20,-107,8792,1460,-11834,30,-3,-142
32767,32767,822,-104,27,-50,23364,25318,-2304,-43,-29,-99,8722,1384,-11868,34,5,-137
32767,32767,812,-124,9,-57,23590,25332,-2320,-54,-20,-104,8632,1398,-11870,40,13,-136
32767,32767,704,-119,11,-48,23520,25226,-2364,-70,-10,-106,8692,1342,-11978,34,6,-137
32767,32726,740,-87,12,-39,23318,25106,-2328,-75,1,-120,8796,1216,-11966,19,1,-140
32767,32767,844,-67,22,-41,23224,25076,-2362,-65,-16,-117,8834,1132,-11976,9,15,-143
32767,32767,1138,-64,29,-52,23206,25074,-2248,-72,-16,-117,8674,1096,-11842,18,26,-141
32767,32767,1174,-105,21,-75,23174,25012,-2376,-44,-23,-96,8644,1152,-11878,53,8,-123
32767,32767,1008,-135,30,-101,23114,24884,-2444,-29,-38,-102,8710,1152,-11774,70,-17,-118
32767,32626,696,-118,26,-86,23248,24924,-2488,-11,-45,-111,8840,1080,-11758,77,-32,-122
32767,32680,710,-86,23,-60,23278,24940,-2370,-13,-44,-102,8966,1036,-11830,69,-22,-127
32767,32767,608,-59,27,-80,23078,24824,-2294,-34,-42,-115,8838,1016,-11776,55,-11,-131
32767,32767,672,-66,33,-66,23116,24730,-2350,-33,-42,-133,8738,1068,-11724,51,-8,-126
32767,32767,818,-99,11,-56,23122,24760,-2430,-20,-54,-119,8716,1240,-11698,40,-20,-115
32767,32767,656,-156,3,-49,23186,24750,-2266,-3,-45,-105,8864,1238,-11860,22,-24,-106
32767,32767,686,-155,0,-50,23066,24738,-2338,14,-41,-117,8970,1234,-11848,-14,-13,-103
32767,32696,588,-124,13,-61,23086,24854,-2300,-1,-52,-116,9098,984,-11808,-49,1,-97
32767,32767,616,-84,-2,-40,23126,24828,-2314,-21,-43,-113,9056,820,-11902,-62,16,-103
32767,32767,802,-121,12,-85,23048,24792,-2366,-19,-36,-119,8972,616,-11842,-41,32,-108
32767,32767,794,-137,6,-62,23028,24744,-2176,-44,-44,-125,8814,594,-11824,-1,29,-108
32767,32516,628,-113,-2,-59,23114,24610,-2308,-51,-34,-123,8806,566,-11752,24,24,-98
32767,32560,670,-83,16,-57,22930,24542,-2308,-53,-31,-118,8954,530,-11736,46,10,-92
32767,32680,560,-64,29,-68,22964,24446,-2364,-70,-33,-121,9024,488,-11744,75,5,-88
32767,32524,542,-47,7,-88,23118,24380,-2282,-63,-48,-132,8956,524,-11742,95,14,-90
32767,32767,606,-81,17,-76,22978,24544,-2294,-39,-34,-146,8866,554,-11706,104,12,-87
32767,32318,746,-80,11,-87,22928,24502,-2382,-21,-40,-128,8868,654,-11656,114,1,-86
32767,32767,694,-55,17,-92,23224,24530,-2304,1,-48,-118,8950,670,-11656,103,-7,-82
32767,32746,632,-51,8,-102,23140,24536,-2252,-10,-46,-132,8946,692,-11644,77,1,-88
32767,32612,648,-82,15,-97,22936,24646,-2256,-27,-43,-152,8876,602,-11624,57,8,-92
32767,32730,816,-84,14,-88,22918,24640,-2466,-13,-52,-120,8882,598,-11614,50,-1,-94
32767,32692,638,-89,9,-80,23032,24600,-2310,-30,-71,-87,8964,606,-11568,38,-4,-95
32767,32372,672,-109,11,-95,23154,24478,-2314,-50,-64,-127,8988,454,-11560,17,-10,-103
32767,32418,500,-83,9,-79,23108,24560,-2402,-54,-50,-128,9026,378,-11546,5,-11,-105
32767,32324,728,-73,-3,-85,22986,24422,-2436,-49,-37,-99,8992,234,-11572,6,-10,-105
32767,32388,486,-106,4,-100,23056,24268,-2326,-47,-44,-97,8950,270,-11630,28,-10,-98
32767,32214,568,-115,-4,-96,22590,24324,-2426,-41,-28,-137,8932,290,-11486,44,-15,-91
32767,32310,774,-122,-2,-99,22574,24162,-2330,-33,-62,-106,8974,280,-11544,50,-18,-94
32767,32168,556,-110,2,-86,22924,24128,-2312,-35,-87,-116,9060,340,-11486,63,-33,-85
32767,32436,346,-95,-7,-103,23074,24224,-2402,-33,-78,-127,9228,316,-11570,79,-29,-71
32767,32014,430,-99,-4,-118,22908,24056,-2244,-45,-68,-121,9084,350,-11472,71,-11,-73
32767,32374,392,-83,-4,-92,23018,23942,-2224,-42,-68,-129,8968,380,-11364,54,-16,-77
32767,32186,464,-54,-1,-56,23138,23914,-2194,-23,-69,-132,8998,360,-11494,48,-31,-72
32767,32390,718,-67,2,-76,22938,24016,-2130,-10,-69,-133,9164,400,-11528,41,-24,-66
32767,32642,724,-102,6,-124,22650,24080,-2208,17,-62,-118,9072,428,-11408,17,-8,-61
32767,32260,466,-106,0,-79,22754,24128,-2010,-16,-96,-134,8956,270,-11338,-2,-9,-60
32767,32380,280,-84,-12,-47,22970,24232,-2168,-3,-93,-130,8974,210,-11384,2,-21,-60
32767,32314,480,-111,-3,-84,22846,24030,-2106,-54,-89,-146,9122,32,-11462,5,-15,-56
32767,32084,342,-103,-25,-104,22956,24020,-2250,-52,-88,-143,9190,-24,-11366,-1,-7,-58
32767,32050,340,-91,3,-105,23000,23876,-2182,-74,-76,-126,9172,-194,-11328,13,7,-57
32767,31770,566,-68,-9,-80,22786,23658,-2088,-69,-63,-152,9194,-114,-11292,50,11,-64
32767,31754,432,-67,-18,-62,22892,23774,-2216,-52,-67,-149,9108,16,-11292,76,0,-59
32767,31800,234,-86,-10,-79,22724,23622,-2072,-40,-64,-120,9050,120,-11164,90,-17,-47
32767,31592,558,-96,-12,-123,22866,23612,-2250,-14,-83,-134,9104,228,-11258,91,-31,-40
32767,31872,414,-65,-9,-92,22890,23892,-2292,-5,-84,-133,9172,162,-11316,71,-32,-37
32767,31288,340,-44,-16,-90,22848,23860,-2204,-38,-69,-138,9152,172,-11384,51,-19,-34
32767,32114,374,-25,-45,-59,22922,23846,-2232,-47,-71,-147,9150,98,-11270,39,-15,-36
32767,32226,650,-55,-31,-85,22856,23676,-2078,-89,-68,-158,9064,66,-11180,20,-15,-37
32767,32370,646,-122,-21,-208,22548,23392,-2042,-87,-69,-175,9104,30,-11114,20,-17,-33
32767,31172,514,-80,-8,-163,22554,23480,-2052,-43,-91,-159,8962,-28,-10994,19,-16,-30
32767,31282,368,-24,-47,-55,22468,23462,-2024,-10,-101,-106,8978,34,-11010,21,-33,-29
32767,31584,588,-86,-10,-90,22980,23600,-2116,3,-114,-117,9162,-8,-11060,23,-55,-20
32767,31684,444,-75,-21,-139,23082,23712,-2094,-18,-90,-119,9326,-10,-10962,22,-55,-19
32767,31876,302,-104,-31,-144,22536,23606,-2158,-56,-58,-139,9350,-10,-10984,18,-45,-25
32767,31150,208,-115,-34,-92,22678,23606,-2146,-71,-77,-133,9250,-26,-11106,10,-37,-28
32767,31222,546,-94,-45,-93,22756,23340,-2208,-72,-78,-99,9108,48,-11122,0,-31,-25
32767,31102,512,-96,-23,-127,22804,23188,-2004,-61,-89,-127,9146,12,-11094,-7,-36,-21
32767,31506,632,-46,-21,-40,22786,23350,-2298,-44,-85,-146,9194,-62,-10952,-9,-37,-14
32767,32084,210,-69,-35,-164,22716,23336,-2180,-16,-82,-117,9274,-58,-10848,-7,-39,-2
32767,31364,348,-129,-35,-153,22828,23264,-2022,-24,-94,-135,9304,-182,-10950,2,-38,5
32767,31338,382,-91,-85,-101,22872,23420,-2110,-14,-76,-143,9224,-182,-10982,20,-29,2
32767,30794,278,-110,-59,-159,22446,23218,-2028,-13,-53,-129,9174,-146,-10936,22,-34,-8
32767,31186,590,-36,-50,-14,22556,23242,-2244,17,-92,-100,9160,-186,-10860,7,-40,-16
32767,31976,860,-39,-39,-170,22752,23408,-2148,3,-91,-90,9104,-36,-10864,-9,-38,-15
32767,31928,534,-115,-14,-189,22726,23396,-2178,37,-88,-90,9082,-86,-10824,2,-36,-8
32767,31078,336,-92,-35,-135,22642,23354,-2184,33,-122,-144,9186,-104,-10642,6,-56,-12
32767,31284,-310,-71,-52,-53,22882,23390,-2130,73,-150,-136,9408,-166,-10808,0,-64,-17
32767,31138,332,-101,-23,-131,22792,23316,-2156,93,-147,-125,9394,-150,-11008,-3,-41,-11
32767,30656,452,-39,-30,-143,22712,23172,-2038,110,-152,-121,9270,-82,-10984,-1,-10,-7
32767,31056,486,-19,-38,-40,22820,23290,-2040,102,-157,-116,9062,6,-10748,-10,-2,-6
32767,31330,490,-65,-33,-128,22728,23314,-2098,117,-149,-76,9190,-110,-10702,-13,-28,1
32767,31480,534,-100,-47,-158,22562,23174,-1908,71,-143,-88,9328,-282,-10856,5,-32,0
32767,31224,226,-132,-67,-172,23084,23252,-1910,29,-152,-106,9250,-278,-10836,19,-13,-5
32767,31270,344,-49,-51,-91,22798,22974,-1918,11,-91,-49,9166,-294,-10654,11,-17,-8
32767,31694,454,-1,-31,-197,22632,22678,-1634,9,-111,-88,9222,-280,-10768,18,-29,-2
32767,30748,236,23,-25,-107,22722,22740,-1810,65,-135,-126,9242,-168,-10914,47,-25,5
32767,31812,380,70,-58,-1,22610,23046,-1448,88,-153,-101,9382,-78,-11078,73,-7,26
32767,31522,508,-83,-35,-169,22738,23136,-1596,76,-156,-73,9456,-36,-11042,85,17,41
32767,31156,358,-96,-54,-116,23048,23336,-1598,112,-171,-40,9470,-14,-10938,76,49,49
32767,30580,146,-51,-45,-87,22950,23316,-1484,54,-135,-73,9352,-128,-10894,66,68,54
32767,30782,42,104,-33,-43,22790,23370,-1752,82,-138,-59,9308,-180,-10662,70,58,58
32767,31462,524,102,-5,-145,22952,23310,-1606,8,-119,-30,9202,-98,-10584,78,56,57
32767,32050,514,115,-1,-202,22452,23040,-1916,-25,-85,-20,9182,-86,-10446,76,54,59
32767,31322,670,104,-12,-152,22794,23390,-1828,-12,-68,-20,9186,-72,-10328,57,44,53
32767,31910,376,53,-38,-153,23530,23518,-1884,0,-57,86,9218,102,-10472,31,36,37
32767,31230,62,-30,-42,-124,22554,22666,-1706,-117,-16,-2,9174,128,-10664,29,19,44
32767,30102,8,18,-53,-15,22466,22910,-1806,-112,-56,-125,9206,138,-10722,39,18,51
32767,31366,300,51,-52,-81,23044,22630,-1498,-67,-67,16,9254,54,-10796,27,33,57
32767,30300,546,13,-41,-142,22696,22790,-1620,44,-71,-25,9184,-126,-10552,-31,54,40
32767,30834,940,38,-53,-52,22208,23196,-1718,12,-89,-49,8840,-188,-10362,-30,49,38
32767,31884,582,38,-71,-137,23092,23756,-1882,80,-102,46,8720,-248,-10432,23,22,61
32767,30244,682,-18,-27,-100,23470,23694,-2040,43,-53,134,8970,86,-10368,75,-20,65
32767,32010,532,74,-35,-60,22820,23448,-1904,-11,-37,60,9198,136,-10324,73,-23,68
32767,29920,382,23,-14,-156,22558,23406,-2096,-38,-73,-43,9038,216,-10412,27,-17,39
32767,31462,332,109,-24,18,22868,23208,-1964,-84,-89,-10,8914,-74,-10398,-8,9,17
32767,30744,530,20,-35,-66,23228,23076,-1920,-80,-61,-3,8810,316,-10246,-67,-11,-29
32767,32544,-16,-35,22,106,22904,23082,-1894,-72,-42,2,9478,460,-10742,-74,-43,23
32767,30562,298,-31,-41,56,22680,22940,-1806,-32,-50,26,9722,110,-10746,-84,2,33
32767,30842,-8,-35,-61,-110,22946,23038,-1742,4,-66,26,9412,18,-10598,-141,52,0
32767,30522,302,-67,-7,48,22922,23086,-1784,1,-51,8,9036,-234,-10628,-144,47,-7
32767,30552,572,-27,-57,-16,22716,23292,-1646,-3,-43,2,8914,-296,-10708,-60,11,5
32767,31332,480,-81,-50,27,22810,23226,-1454,-27,-66,12,9046,-322,-10774,10,4,28
32767,30530,802,-102,-52,-14,23002,23134,-1544,-33,-66,15,9046,-242,-10288,-17,13,0
32767,32256,540,-18,-44,-52,22804,23074,-1496,-3,-60,10,9018,38,-10478,-13,-14,-7
32767,31574,140,-34,33,29,22730,23094,-1590,20,-71,-5,9256,332,-11012,77,-22,28
32767,31898,136,54,14,52,22910,23148,-1664,36,-88,-3,9486,664,-11176,68,22,38
32767,31122,326,17,24,53,22974,23274,-1682,13,-74,7,9332,572,-10822,-45,70,24
32767,30990,326,-6,-1,31,22854,23234,-1764,-4,-52,8,9232,178,-10550,-144,89,-8
32767,31336,132,-54,-31,23,22834,23186,-1680,-3,-61,8,9100,-198,-10424,-153,64,-14
32767,31302,224,-102,-48,23,22910,23004,-1634,-5,-77,-14,9182,-266,-10614,-102,43,10
32767,31200,130,-89,-60,21,22812,22982,-1536,-26,-47,-33,9202,-318,-10746,-26,39,42
32767,31210,248,-61,-58,25,22778,22794,-1942,-34,-18,-17,9100,-166,-10844,19,46,44
32767,31142,342,-40,-59,20,22822,22960,-1980,44,-17,19,8980,62,-10704,9,36,12
32767,31156,294,-52,-71,14,23058,23332,-1822,67,-20,20,9206,158,-10572,-11,23,6
32767,31110,424,-65,-87,15,23150,23610,-1638,36,-18,-6,9128,218,-10594,-16,31,21
32767,31104,518,-63,-84,22,23024,23636,-1620,-19,-18,-22,8976,220,-10622,-7,43,36
32767,31002,594,-40,-61,32,22756,23470,-1592,-47,-18,-27,8954,180,-10718,3,33,40
32767,31150,744,-15,-46,24,22640,23276,-1644,-20,-45,-7,9206,234,-10610,-18,27,34
32767,31124,706,-40,-46,12,22816,23256,-1742,14,-77,24,9232,166,-10622,-55,46,27
32767,31084,578,-45,-48,5,22858,23352,-1800,27,-74,26,9064,128,-10542,-62,57,18
32767,31204,418,-31,-51,8,22756,23352,-1720,14,-70,15,9090,102,-10638,-40,34,22
32767,31250,324,-27,-55,19,22852,23116,-1654,-33,-46,-9,9248,18,-10870,-8,32,35
32767,31006,424,-27,-57,19,23156,22656,-1746,-48,-31,-28,9156,-14,-10802,-2,61,29
32767,31010,540,-20,-48,14,23142,22460,-1788,4,-24,-40,8882,-40,-10592,-18,66,6
32767,31000,466,5,-34,15,22918,22906,-1880,103,-33,-54,8922,-54,-10450,-30,37,-13
32767,31378,234,31,-51,24,22730,23550,-1802,120,-23,-37,9096,20,-10588,-6,1,-11
32767,31608,84,-3,-74,30,22534,23886,-2016,116,-14,-10,9400,158,-10666,39,0,13
32767,31256,102,-70,-93,38,22276,23644,-1578,54,-43,-11,9350,296,-10710,49,27,30
32767,30898,280,-60,-108,40,22576,22756,-1336,-138,-112,-172,9104,358,-10838,19,54,26
32767,31030,636,0,-98,39,23308,22630,-1578,-123,-106,-281,9088,210,-10760,-15,43,16
32767,31744,896,18,-98,33,22950,22252,-1434,-122,-62,-210,9236,100,-10698,-40,45,20
32767,31764,920,-34,-101,24,22542,21874,-1172,-28,-82,-159,9144,-50,-10720,-41,67,29
32767,31714,752,-70,-88,12,23264,22506,-1140,114,-113,-176,8902,-126,-10756,-9,70,35
32767,31224,612,-56,-62,9,23492,23172,-1028,161,-89,-111,8736,6,-10684,34,49,23
32767,31258,452,-9,-46,14,23132,23434,-1214,158,-86,-110,9058,200,-10644,50,17,12
32767,31116,422,-3,-43,22,22840,23874,-1182,94,-100,-174,9362,286,-10652,42,25,10
32767,30814,396,28,-60,32,22874,23754,-1538,-6,-111,-199,9228,204,-10532,42,47,12
32767,30716,450,71,-90,56,22932,23260,-1394,-106,-137,-204,8870,124,-10576,44,49,1
32767,30952,384,132,-100,57,22932,22866,-1366,-131,-125,-226,8906,70,-10650,40,29,-12
32767,31742,584,136,-120,50,22588,22494,-1432,-97,-119,-212,9238,140,-10978,42,17,-17
32767,32180,744,71,-139,39,22872,22478,-1432,-16,-139,-162,9438,88,-11016,57,44,11
32767,29484,1572,-41,-178,-93,22986,22586,-1586,23,-134,-145,9106,-12,-10544,30,97,13
32767,30436,1120,-8,-219,-213,23036,22716,-1436,39,-117,-151,8688,-144,-10082,4,76,-2
32767,29950,802,-2,-143,-208,23086,22890,-1512,20,-118,-156,8648,-388,-10030,57,-25,5
32767,30030,896,93,-162,-222,22934,22864,-1410,-32,-98,-177,9076,-432,-10168,163,-94,24
32767,30740,774,124,-179,-206,22896,22714,-1554,-20,-119,-172,9240,492,-10482,198,-82,38
32767,32004,1408,116,-94,-106,23184,22764,-1296,-23,-126,-175,8838,998,-10596,168,-63,63
32767,32767,1402,57,-74,-182,23290,22714,-1292,-43,-109,-167,8594,1270,-10544,139,-71,80
32767,32306,1678,-72,-77,-204,22956,22612,-1296,-51,-97,-149,8940,1330,-10404,42,-99,71
32767,31774,1366,-119,-105,-176,23000,22660,-1248,18,-127,-112,9484,1030,-10340,-98,-94,60
32767,30724,1212,-144,-119,-252,23244,22740,-1170,12,-151,-98,9392,474,-10338,-188,-26,55
32767,30192,1350,-84,-124,-202,23438,22872,-1066,-27,-148,-107,8792,16,-10328,-201,9,56
32767,31078,1146,2,-102,-167,23192,22840,-1030,-97,-132,-103,8630,-230,-10092,-166,-38,57
32767,31660,1034,2,-79,-231,22960,22562,-960,-123,-123,-109,9122,-196,-10110,-80,-98,69
32767,31656,1180,-40,-49,-227,23008,22356,-1126,-103,-149,-116,9146,-38,-10192,-20,-90,66
32767,31114,942,-32,-53,-188,23100,22224,-940,-68,-163,-125,8952,234,-10266,33,-91,64
32767,31414,930,-42,-42,-175,23094,22220,-1004,-48,-156,-122,8992,398,-10324,74,-112,72
32767,31142,950,-74,-56,-189,22902,22220,-1160,-32,-160,-102,9202,612,-10256,82,-118,75
32767,31308,968,-80,-52,-164,22966,22324,-1020,-25,-159,-85,9360,672,-10050,46,-99,86
32767,30682,1354,-64,-60,-201,23280,22450,-1142,-30,-160,-70,9206,732,-9972,2,-81,97
32767,31274,1054,-23,-67,-144,23256,22322,-1322,-29,-148,-79,8956,854,-9906,-30,-84,107
32767,31824,1210,-54,-65,-214,23288,22446,-854,-17,-183,-120,8922,830,-9982,-50,-112,113
32767,31428,1400,-74,-91,-188,23222,22318,-1002,-61,-140,-127,9146,860,-10088,-77,-114,114
32767,30992,1476,-70,-79,-103,22622,22100,-1088,-50,-117,-92,9226,896,-10000,-126,-92,121
32767,31632,1766,-17,-64,-161,22612,22190,-956,-43,-158,-71,9002,874,-9882,-186,-69,130
32767,31504,1252,5,-37,-185,23046,22240,-990,-41,-151,-73,8770,806,-9760,-204,-83,140
32767,31342,1336,36,-53,-122,23072,22184,-1102,-56,-127,-80,8720,908,-9788,-182,-123,156
32767,31264,1246,-33,-95,-89,22614,22070,-1146,-71,-116,-79,8914,826,-9890,-149,-145,174
32767,31120,1620,-144,-97,-104,22730,21898,-1168,-53,-127,-70,9080,854,-9922,-140,-131,182
32767,30340,1466,-137,-100,-118,23272,21924,-1246,-53,-114,-63,9052,738,-9814,-152,-107,177
32767,30382,1432,-60,-82,-132,23128,21988,-1282,-54,-74,-72,8886,668,-9752,-153,-113,169
32767,30578,1412,18,-64,-118,22634,22058,-1098,-82,-56,-80,8936,636,-9622,-135,-138,171
32767,31304,1414,26,-58,-145,22642,22054,-1060,-91,-84,-70,8884,770,-9770,-109,-145,184
32767,31532,1186,-28,-77,-102,22752,21942,-1010,-60,-113,-63,8902,1064,-9850,-74,-151,193
32767,31084,1256,-107,-80,-104,23104,21992,-786,-40,-130,-52,8982,1380,-9770,-62,-140,220
32767,30392,996,-119,-94,-108,23180,22078,-1088,-30,-115,-42,8900,1418,-9656,-108,-122,225
32767,29884,1224,-74,-98,-118,22810,22234,-1034,-46,-87,-35,8704,1072,-9596,-179,-110,201
32767,30558,1242,-8,-86,-128,22742,22052,-1094,-62,-83,-39,8720,788,-9566,-189,-124,166
32767,31206,1400,22,-60,-124,22932,21816,-1076,-76,-103,-44,8762,900,-9546,-167,-129,164
32767,30946,1234,-15,-97,-119,23120,21772,-980,-58,-110,-51,8784,1016,-9692,-154,-119,182
32767,30858,1256,-72,-76,-110,23198,21768,-996,-52,-92,-54,8748,1012,-9598,-142,-114,185
32767,30350,964,-55,-64,-106,23276,21908,-980,-50,-81,-43,8750,950,-9486,-136,-123,166
32767,30228,1006,5,-54,-93,22976,21952,-924,-60,-56,-47,8842,1110,-9504,-137,-129,137
32767,30512,1128,42,-34,-89,22816,21960,-902,-63,-75,-41,8882,1216,-9476,-129,-123,130
32767,30700,906,35,-45,-69,22826,21834,-808,-54,-64,-27,8994,1140,-9594,-124,-122,137
32767,30872,636,-56,-64,-65,23132,21832,-906,-55,-82,-23,9084,1182,-9596,-103,-127,131
32767,30596,672,-117,-88,-67,23276,21940,-826,-68,-64,-21,9060,1092,-9718,-92,-95,129
32767,30266,1406,-98,-80,-70,23074,22000,-764,-91,-53,-18,8818,1320,-9558,-98,-59,120
32767,30066,1474,-42,-50,-57,22638,21990,-892,-93,-52,-18,8474,1432,-9348,-95,-59,119
32767,30674,1216,26,-61,-60,22716,21826,-800,-101,-84,-8,8474,1486,-9178,-86,-96,119
32767,31260,1070,-34,-48,-74,23278,21684,-892,-89,-100,-2,8858,1484,-9300,-82,-122,119
32767,30670,1012,-131,-68,-72,23598,21592,-864,-75,-84,-10,9170,1410,-9484,-83,-103,116
32767,30358,968,-141,-67,-76,23258,21724,-912,-54,-57,-21,8994,1446,-9552,-102,-33,103
32767,29628,922,-90,-44,-42,22814,21888,-978,-38,-52,-16,8686,1544,-9258,-131,-30,100
32767,29814,1078,3,-34,-46,22928,22022,-724,-34,-65,-9,8554,1588,-9198,-145,-64,110
32767,30592,840,22,-42,-43,23406,21988,-662,-74,-76,-8,8654,1476,-9196,-126,-92,116
32767,30994,884,-57,-67,-51,23186,21770,-752,-108,-47,-7,8866,1514,-9346,-107,-103,106
32767,30446,950,-125,-75,-48,23196,21590,-758,-117,-65,-2,8948,1392,-9360,-103,-72,95
32767,30030,1066,-86,-84,-34,23468,21680,-694,-91,-65,-12,8802,1434,-9162,-114,-48,76
32767,30202,1218,-36,-35,-30,22904,21658,-676,-78,-41,-13,8658,1566,-9118,-127,-54,75
32767,30384,1302,21,-42,-25,22770,21716,-562,-73,-69,4,8658,1662,-9148,-104,-88,93
32767,30964,1080,8,-48,-17,23130,21678,-670,-79,-77,14,8834,1610,-9228,-80,-90,99
32767,30788,1334,-99,-61,-12,23262,21682,-582,-88,-70,9,9056,1630,-9284,-83,-82,95
32767,30702,1264,-173,-73,-23,23282,21670,-510,-93,-65,-2,9032,1642,-9298,-98,-43,92
32767,30018,1420,-123,-62,-16,23134,21618,-720,-102,-48,-16,8708,1836,-9108,-107,-28,85
32767,30140,1312,-39,-16,-6,22862,21600,-562,-100,-44,-6,8428,1894,-8960,-94,-48,100
32767,30198,1206,2,-26,-2,22998,21676,-498,-97,-56,14,8632,1946,-8930,-72,-85,108
32767,30620,968,-23,-34,-6,23172,21684,-718,-108,-44,14,9012,1884,-8932,-67,-93,103
32767,30760,1086,-95,-71,-6,22942,21618,-518,-132,-38,2,9244,1838,-8998,-90,-61,87
32767,30494,1294,-177,-91,-16,23150,21556,-610,-130,-68,-2,8864,1848,-9012,-119,-6,86
32767,30064,1188,-136,-85,-20,23518,21578,-462,-100,-54,-4,8574,1894,-8818,-115,-24,89
32767,30050,1222,-68,-41,-8,23304,21760,-598,-70,-32,12,8626,2050,-8836,-89,-65,101
32767,30702,1284,-27,-60,5,23120,21884,-574,-82,-40,17,8806,1988,-8932,-79,-73,101
32767,30590,1330,-93,-75,0,23168,21838,-518,-106,-60,8,8904,1922,-8822,-105,-54,78
32767,30402,1212,-121,-80,-4,23356,21834,-476,-145,-65,6,8796,1880,-8816,-135,-32,59
32767,29968,1318,-90,-90,10,23340,21682,-546,-162,-54,5,8684,1824,-8814,-142,-31,57
32767,30228,1426,-73,-68,7,23128,21508,-414,-165,-47,11,8604,1920,-8794,-114,-44,63
32767,30218,1500,-72,-58,12,23248,21324,-594,-157,-58,8,8658,1998,-8674,-85,-59,75
32767,30192,1498,-79,-59,-1,23320,21316,-520,-126,-53,7,8690,1966,-8732,-99,-61,63
32767,30278,1406,-84,-44,3,23144,21332,-588,-97,-55,5,8706,1880,-8712,-121,-50,44
32767,30528,1450,-118,-70,2,23146,21494,-514,-83,-63,14,8708,1978,-8878,-123,-47,36
32767,30410,1330,-134,-72,8,23166,21502,-586,-79,-62,21,8736,1988,-8834,-115,-50,41
32767,30270,1236,-145,-66,15,23072,21584,-586,-96,-60,11,8812,2114,-8814,-105,-62,46
32767,29842,1686,-171,-44,18,23282,21522,-458,-108,-65,3,8830,2154,-8762,-102,-56,58
32767,29874,1406,-120,-53,8,23400,21410,-616,-113,-57,-2,8780,2134,-8684,-111,-55,60
32767,29826,1422,-85,-37,21,23270,21298,-660,-100,-46,-4,8656,2138,-8582,-122,-71,65
32767,30498,1544,-74,-42,9,23236,21436,-314,-74,-52,4,8672,2130,-8672,-107,-89,67
32767,30862,1384,-109,-55,11,23344,21676,-352,-46,-51,5,8796,2154,-8772,-97,-92,72
32767,30206,1402,-165,-66,20,23274,21922,-240,-50,-35,28,8880,2188,-8652,-108,-76,81
32767,30162,1570,-169,-75,13,23354,21802,-412,-85,-46,32,8766,2236,-8602,-119,-64,81
32767,30234,1636,-136,-44,-1,23412,21656,-274,-113,-44,10,8694,2268,-8572,-138,-66,88
32767,30408,1648,-106,-45,-3,23508,21406,-456,-126,-60,10,8730,2292,-8512,-147,-81,93
32767,30604,1780,-155,-45,-8,23170,21210,-454,-120,-63,19,8816,2222,-8558,-153,-81,95
32767,30220,1322,-205,-79,-1,23092,21078,-360,-83,-76,23,8870,2130,-8612,-155,-74,92
32767,29856,1338,-190,-54,3,23472,21146,-388,-70,-89,27,8930,2126,-8572,-153,-63,94
32767,29720,1330,-121,-45,12,23432,21320,-466,-60,-53,26,8832,2090,-8592,-144,-61,90
32767,30082,1294,-88,-50,10,23078,21490,-594,-76,-58,38,8690,2110,-8438,-130,-58,82
32767,30140,1366,-117,-55,12,23244,21570,-472,-92,-60,39,8674,2096,-8386,-114,-70,77
32767,29884,1296,-134,-55,12,23410,21604,-528,-106,-64,38,8812,2140,-8376,-96,-77,83
32767,29946,1396,-132,-56,-3,23356,21530,-540,-128,-45,34,8944,2224,-8522,-84,-68,94
32767,30076,1204,-125,-57,1,23392,21540,-564,-135,-39,48,8796,2318,-8462,-74,-50,106
32767,29626,1328,-113,-37,4,23226,21412,-596,-141,-36,55,8468,2456,-8498,-61,-58,115
32767,30014,1496,-74,-45,-6,23158,21326,-496,-125,-44,45,8512,2506,-8378,-69,-72,125
32767,30398,1304,-71,-70,-7,23284,21334,-454,-87,-62,42,8656,2548,-8340,-86,-95,127
32767,30516,1438,-131,-59,-6,23346,21328,-334,-67,-60,49,8868,2532,-8208,-102,-97,138
32767,30238,1700,-161,-81,-26,23164,21542,-496,-63,-54,40,8956,2644,-8132,-108,-96,146
32767,30026,1596,-166,-61,-30,23100,21642,-496,-85,-55,52,9014,2778,-8204,-114,-84,160
32767,29500,1438,-112,-57,-25,23152,21550,-474,-97,-47,67,8884,2696,-8194,-123,-71,169
32767,29856,1486,-27,-40,-32,23130,21448,-436,-106,-56,64,8686,2558,-8062,-142,-72,156
32767,30008,1522,7,-11,-11,23076,21358,-366,-108,-57,59,8672,2490,-7962,-166,-85,136
32767,30232,1620,0,-22,-8,23174,21440,-498,-101,-66,59,8832,2466,-8032,-146,-92,125
32767,30478,1358,-75,-43,-4,23272,21452,-532,-111,-51,60,8952,2506,-8062,-116,-86,124
32767,30028,1246,-158,-54,5,23198,21354,-564,-125,-34,66,8876,2618,-8186,-99,-77,127
32767,30054,1358,-156,-63,-2,23198,21292,-504,-119,-35,61,8818,2724,-8176,-93,-64,132
32767,29872,1258,-139,-67,16,23326,21296,-462,-107,-38,51,8782,2776,-7942,-107,-54,122
32767,30254,1228,-131,-71,15,23148,21378,-476,-75,-28,53,8782,2950,-8094,-124,-61,109
32767,30034,1344,-167,-62,40,23104,21500,-510,-68,-42,62,8862,2884,-8208,-131,-59,111
32767,30092,1424,-173,-92,42,23078,21672,-538,-68,-55,69,8846,2906,-8202,-128,-47,121
32767,29740,1302,-179,-84,43,23176,21746,-470,-79,-62,77,8662,2858,-8152,-147,-25,129
32767,29556,1468,-135,-78,53,23492,21664,-502,-80,-73,79,8592,2850,-8010,-159,-35,121
32767,29694,1432,-88,-67,34,23408,21620,-438,-76,-56,77,8692,2810,-7938,-157,-48,110
32767,30020,1436,-86,-77,39,23362,21606,-560,-80,-50,75,8728,2812,-7908,-160,-49,109
32767,30054,1454,-119,-79,42,23366,21578,-540,-93,-39,72,8720,2772,-7958,-157,-44,116
32767,30148,1284,-145,-82,36,23504,21614,-398,-105,-33,80,8676,2694,-8060,-141,-38,120
32767,29772,1226,-144,-75,48,23430,21572,-542,-103,-33,86,8628,2716,-8040,-126,-39,112
32767,29644,1278,-103,-66,26,23316,21430,-292,-117,-37,79,8630,2908,-8004,-117,-38,98
32767,29804,1440,-81,-61,39,23412,21500,-286,-103,-50,69,8694,2984,-8020,-131,-38,88
32767,30212,1328,-126,-60,45,23238,21404,-400,-57,-50,92,8694,2998,-8026,-142,-44,93
32767,29798,1236,-195,-59,52,23536,21504,-306,-44,-74,77,8810,2992,-8112,-156,-41,101
32767,29410,1058,-183,-84,42,23604,21712,-260,-34,-47,62,8734,2902,-8128,-159,-29,108
32767,29348,1252,-137,-74,53,23246,21644,-396,-43,-33,78,8738,2856,-8068,-156,-24,102
32767,29534,1224,-93,-69,68,23184,21632,-352,-47,-47,64,8682,2900,-8020,-140,-32,96
32767,29994,1364,-111,-80,57,23354,21634,-418,-45,-50,60,8790,2932,-8158,-121,-34,94
32767,30200,1234,-144,-76,41,23412,21632,-302,-82,-34,74,8844,2988,-8112,-118,-21,98
32767,29736,1516,-152,-62,44,23360,21674,-178,-97,-35,68,8742,3064,-8044,-115,-13,117
32767,29758,1550,-137,-47,42,23096,21610,-328,-108,-28,74,8652,3052,-7920,-93,-13,133
32767,29838,1388,-105,-49,58,23000,21482,-426,-102,-48,91,8654,3164,-7938,-72,-25,133
32767,30054,1340,-100,-39,60,23392,21460,-302,-81,-71,89,8836,3238,-7940,-55,-38,126
32767,29754,1326,-100,-49,65,23488,21556,-330,-73,-60,70,8952,3354,-7794,-73,-27,111
32767,30054,1376,-126,-65,71,23316,21674,-194,-81,-50,86,9020,3338,-7878,-98,-11,109
32767,29904,1370,-161,-79,51,23240,21760,-570,-59,-45,93,8918,3400,-8036,-119,7,122
32767,29866,1068,-153,-99,94,23212,21750,-334,-56,-55,99,8810,3434,-7972,-127,7,130
32767,29680,1266,-155,-89,50,23304,21784,-388,-60,-63,88,8684,3448,-7986,-140,8,131
32767,29824,1380,-129,-104,74,23370,21876,-314,-82,-58,107,8704,3456,-7790,-148,10,129
32767,29698,1494,-118,-88,71,23432,21884,-408,-113,-57,116,8574,3432,-7772,-154,7,132
32767,29492,1766,-123,-70,49,23418,21976,-420,-118,-41,119,8530,3378,-7816,-153,1,136
32767,29772,1526,-121,-92,42,23534,21864,-430,-136,-38,134,8624,3340,-7820,-123,-15,138
32767,29728,1408,-80,-94,85,23508,21888,-416,-146,-32,115,8772,3312,-7866,-93,-18,147
32767,29758,1410,-86,-102,71,23456,21840,-330,-153,-24,124,8796,3320,-7892,-96,3,150
32767,29844,1524,-92,-73,56,23338,21682,-436,-132,-27,132,8624,3380,-7838,-114,11,147
32767,29956,1578,-69,-77,49,23404,21714,-296,-128,-46,119,8530,3468,-7862,-122,-16,141
32767,30092,1446,-91,-89,60,23604,21822,-332,-118,-32,124,8726,3612,-7728,-119,-33,138
32767,29756,1522,-119,-106,64,23372,21794,-276,-117,-23,128,8786,3568,-7728,-131,-26,135
32767,29908,1636,-127,-99,74,23342,21984,-204,-100,-38,128,8752,3570,-7802,-150,-11,127
32767,29722,1448,-93,-85,82,23480,21920,-286,-90,-34,135,8676,3590,-7826,-157,-5,127
32767,29798,1822,-102,-71,69,23194,21942,-248,-101,-42,136,8532,3560,-7660,-153,-4,133
32767,29834,1604,-131,-75,68,23198,21996,-266,-106,-48,144,8550,3572,-7646,-138,-21,136
32767,29766,1662,-140,-66,66,23520,21956,-236,-111,-55,164,8536,3588,-7838,-113,-29,145
32767,30406,1566,-124,-79,76,23644,21928,-202,-133,-40,156,8648,3582,-7936,-93,-30,141
32767,29958,1414,-161,-62,56,23526,22014,-516,-111,-20,164,8738,3690,-7768,-94,-15,112
32767,29898,1596,-135,-70,69,23328,21980,-392,-110,-26,181,8686,3880,-7730,-118,-6,89
32767,29712,1792,-85,-26,90,23442,22174,-580,-105,-36,173,8618,3888,-7642,-131,-5,93
32767,30664,1630,-64,-59,110,23598,22278,-594,-123,-17,194,8608,4032,-7676,-142,-9,109
32767,30412,1608,-167,-46,141,23454,22260,-602,-170,5,193,8726,3978,-7780,-159,-11,126
32767,29830,1308,-201,-76,123,23454,22232,-542,-194,6,180,8796,3982,-7772,-180,3,122
32767,29832,1426,-181,-83,154,23408,21960,-634,-206,16,180,8740,4026,-7834,-189,16,107
32767,29806,1580,-160,-76,133,23480,21846,-428,-197,4,183,8700,3980,-7778,-193,20,102
32767,29732,1376,-155,-75,143,23526,21852,-406,-178,9,183,8684,3984,-7766,-213,24,111
32767,29816,1660,-151,-77,142,23514,21910,-354,-165,12,189,8672,3898,-7778,-221,21,122
32767,29968,1536,-144,-73,126,23362,22066,-360,-150,9,190,8640,3770,-7674,-196,16,129
32767,30324,1610,-159,-76,120,23228,22192,-436,-130,1,195,8560,3768,-7798,-158,12,134
32767,30042,1854,-140,-75,136,23202,21940,-110,-111,-22,188,8556,3776,-7784,-122,8,134
32767,30208,1648,-153,-74,95,23502,22006,-344,-86,-45,161,8606,3808,-7716,-108,7,125
32767,29764,1722,-145,-54,128,23642,22082,-68,-89,-31,178,8640,3918,-7638,-112,10,111
32767,29846,1672,-98,-53,157,23744,22192,-478,-59,-18,198,8580,4104,-7682,-124,12,109
32767,29958,1664,-106,-42,193,23312,22394,-384,-58,-15,204,8554,4236,-7762,-141,11,127
32767,29850,1704,-163,-51,165,23388,22572,-234,-93,-24,188,8646,4244,-7740,-152,6,134
32767,29984,1608,-180,-45,212,23572,22534,-310,-130,-27,183,8680,4168,-7806,-171,16,116
32767,29732,1248,-144,-56,199,23370,22080,-304,-160,-5,183,8778,4310,-7816,-200,23,87
32767,29870,1444,-111,-38,248,23456,22046,-394,-148,-22,165,8764,4448,-7772,-243,42,70
32767,30422,1172,-109,-54,272,23514,22138,-596,-67,-20,186,8728,4314,-7850,-283,58,76
32767,30672,1270,-193,-61,214,23376,22206,-380,-29,-28,186,8716,4240,-7958,-303,72,89
32767,30400,1128,-243,-77,202,23470,22584,-482,-23,-40,168,8774,3968,-7924,-308,79,91
32767,30180,862,-205,-90,227,23582,22836,-616,-60,-22,184,8664,3872,-7908,-285,87,73
32767,29802,1440,-189,-68,205,23342,22768,-496,-91,-2,214,8474,3848,-7860,-264,82,71
32767,30384,1474,-137,-76,211,23488,22696,-674,-138,-23,183,8474,3864,-7904,-231,59,86
32767,30292,1512,-166,-78,190,23506,22600,-372,-144,-11,191,8510,3864,-7994,-185,50,102
32767,30356,1628,-225,-99,203,23544,22430,-550,-118,-14,188,8630,3860,-8040,-143,60,112
32767,29852,1444,-233,-99,261,23562,22492,-552,-91,-13,199,8652,3978,-8012,-97,64,111
32767,29492,1968,-213,-65,169,23502,22626,-582,-82,-3,208,8610,4098,-8014,-80,69,113
32767,29470,1646,-111,-64,229,23320,22764,-526,-73,-8,211,8418,4214,-7802,-89,57,104
32767,29724,1710,-32,-28,183,23552,23060,-566,-77,-13,229,8574,4338,-7808,-83,24,105
32767,30546,1816,-26,-25,246,23298,23024,-560,-126,1,233,8756,4418,-7994,-80,24,110
32767,31002,1538,-117,-52,249,23218,22940,-544,-164,-18,208,8736,4504,-8034,-112,58,100
32767,30428,1414,-221,-59,187,23804,22718,-520,-196,-14,210,8520,4556,-8004,-169,87,85
32767,29910,1650,-161,-36,210,23868,22692,-642,-157,22,241,8376,4490,-7948,-219,69,82
32767,29946,1554,-117,-19,202,23800,22778,-534,-133,23,237,8564,4416,-8174,-229,44,88
32767,30274,1702,-110,-32,229,23850,22890,-540,-136,27,194,8692,4268,-8332,-221,60,103
32767,29966,1588,-116,-13,202,23598,22758,-492,-162,31,155,8686,4138,-8238,-211,85,104
32767,29992,1536,-98,-15,195,23732,22368,-314,-161,-5,109,8556,4040,-8056,-201,90,90
32767,30132,1514,-92,-25,216,23724,22192,-248,-114,-12,81,8448,4082,-8104,-174,73,66
32767,31188,1288,-79,-30,222,23522,22136,-108,-63,-42,44,8550,4066,-8148,-141,52,75
32767,30304,1472,-133,9,146,23616,22222,-164,-3,-71,13,8652,4174,-8242,-104,61,93
32767,30750,1448,-168,-18,245,23894,22296,-228,38,-85,-17,8654,4290,-8354,-80,74,94
32767,30548,1422,-127,-19,236,23800,22306,8,38,-77,-73,8454,4460,-8308,-79,80,90
32767,30376,1156,-140,-21,227,23336,22488,-60,14,-74,-124,8410,4560,-8284,-108,75,82
32767,30536,1478,-127,-6,252,23452,22648,-44,-9,-76,-112,8476,4570,-8256,-145,72,77
32767,30866,1318,-92,-22,209,23884,22798,-14,-16,-71,-91,8488,4448,-8312,-171,80,65
32767,30748,1236,-107,-9,232,24002,22900,-66,-39,-41,-89,8508,4474,-8318,-190,84,49
32767,31054,1334,-117,-16,315,23728,22954,-50,-52,-28,-87,8514,4422,-8364,-199,89,43
32767,31512,1422,-140,-14,234,23540,22972,-60,-63,-47,-80,8530,4378,-8298,-208,104,43
32767,30798,1518,-228,-1,215,23618,23092,-114,-86,-65,-73,8566,4376,-8200,-218,102,42
32767,31182,1140,-186,7,244,23638,23062,-282,-96,-69,-65,8562,4316,-8300,-206,97,48
32767,31552,968,-137,9,255,23768,22980,-362,-93,-78,-64,8444,4378,-8428,-160,88,56
32767,31054,1148,-151,17,275,23948,22776,-522,-92,-71,-78,8510,4670,-8504,-121,82,65
32767,31160,1272,-181,-27,297,23822,22722,-464,-89,-56,-85,8596,4740,-8550,-124,83,78
32767,30830,1364,-268,-56,230,23776,22674,-464,-98,-43,-82,8596,4602,-8496,-154,86,79
32767,29604,1298,-256,-64,178,23732,22636,-430,-101,-31,-73,8556,4548,-8484,-164,85,81
32767,29620,1574,-115,-66,178,23666,22706,-272,-115,-22,-71,8532,4498,-8558,-133,76,83
32767,29650,1846,-56,-59,123,23620,22656,-276,-119,-23,-69,8450,4408,-8490,-92,81,115
32767,30052,1976,-142,-63,82,23644,22514,-240,-127,-26,-71,8192,4414,-8352,-65,63,120
32767,29584,1750,-96,-66,43,23704,22386,-144,-127,-24,-73,8142,4384,-8242,-40,31,134
32767,29130,1812,-39,-56,-26,23636,22334,-160,-126,-25,-71,8158,4230,-8200,-12,14,140
32767,29922,1858,-14,-66,-46,23558,22218,-210,-116,-23,-67,8084,4026,-8012,32,-7,123
32767,30160,1696,-36,-71,-86,23492,22192,-192,-94,-28,-64,8210,4442,-7806,85,-47,68
32767,30390,1724,-56,-51,-63,23594,22276,-158,-79,-43,-63,8410,4820,-8042,98,-79,63
32767,31020,1700,-42,-68,-46,23692,22290,-104,-71,-43,-54,8606,5134,-8228,86,-85,83
32767,31174,1732,-79,-64,-29,23718,22340,-128,-66,-36,-42,8646,5330,-8284,47,-68,105
32767,31098,1834,-128,-66,-23,23636,22396,-232,-68,-32,-42,8554,5378,-8360,-20,-40,94
32767,31158,1902,-148,-48,-25,23586,22422,-360,-64,-30,-53,8488,5394,-8322,-98,-32,77
32767,31212,1986,-154,-31,-25,23740,22440,-274,-83,-30,-52,8514,5292,-8362,-162,-23,70
32767,31182,1958,-173,-21,-27,23730,22338,-302,-110,-9,-44,8600,5200,-8380,-205,-8,81
32767,30782,1664,-187,-18,-33,23636,22388,-288,-132,0,-37,8600,4822,-8268,-208,7,108
32767,30548,1368,-135,-3,-35,23550,22366,-184,-153,-7,-33,8540,4636,-8248,-182,6,114
32767,30690,1170,-70,-1,-35,23520,22266,-220,-155,-18,-35,8486,4522,-8196,-142,-3,105
32767,31050,1120,-59,-9,-32,23542,22090,-232,-133,-28,-39,8422,4624,-8176,-95,-23,94
32767,31094,1276,-110,-33,-34,23544,22016,-316,-109,-34,-41,8478,4682,-8248,-59,-37,95
32767,30930,1424,-148,-57,-31,23564,22020,-350,-86,-41,-34,8500,4860,-8144,-33,-40,104
32767,30830,1488,-168,-73,-30,23724,22200,-330,-60,-38,-14,8502,4982,-8044,-13,-40,103
32767,30604,1552,-168,-71,-27,23708,22188,-358,-59,-22,-12,8508,5152,-8130,0,-52,93
32767,30512,1694,-133,-62,-26,23564,22308,-400,-62,-19,-17,8486,5166,-7990,-5,-53,79
32767,30656,1744,-116,-53,-24,23496,22338,-346,-92,-30,-24,8648,5234,-7872,-31,-55,69
32767,30616,1646,-119,-48,-19,23470,22224,-380,-99,-35,-25,8640,5204,-7904,-56,-44,68
32767,30568,1764,-127,-45,-18,23506,22080,-278,-88,-45,-29,8640,5142,-7852,-80,-30,69
32767,30552,1736,-117,-38,-13,23594,22064,-224,-65,-57,-30,8548,5104,-7850,-92,-22,64
32767,30690,1660,-108,-32,-10,23624,22000,-260,-8,-61,-19,8440,5150,-7928,-82,-27,53
32767,30722,1678,-129,-30,-7,23524,22122,-272,27,-70,-11,8510,5188,-7900,-69,-41,44
32767,30536,1608,-143,-26,-8,23538,22178,-348,47,-78,-8,8578,5146,-7960,-69,-40,47
32767,30394,1576,-133,-26,-4,23546,22202,-268,54,-87,-6,8634,5196,-7914,-91,-30,46
32767,30402,1296,-92,-19,-1,23594,22254,-298,46,-89,-12,8592,5050,-7862,-112,-32,39
32767,30790,1352,-66,-24,7,23704,22282,-280,34,-82,-18,8578,5088,-7824,-102,-41,24
32767,30984,1458,-115,-37,11,23766,22262,-248,6,-62,-14,8626,5204,-7904,-84,-37,20
32767,30972,1618,-200,-54,6,23722,22334,-266,-35,-38,-10,8592,5254,-7998,-80,-23,31
32767,30190,1652,-252,-56,3,23470,22184,-194,-71,-23,-12,8648,5260,-7958,-92,-19,42
32767,30000,1714,-193,-40,4,23394,22072,-126,-93,-32,-17,8650,5144,-7970,-98,-22,41
32767,30282,1646,-117,-25,3,23476,21978,-122,-84,-47,-18,8660,5076,-7830,-99,-18,24
32767,30636,1570,-106,-23,7,23538,21858,-188,-53,-58,-12,8582,5072,-7734,-100,-12,16
32767,30634,1482,-123,-28,9,23594,21874,-86,-3,-67,-12,8652,5096,-7886,-69,-32,28
32767,30542,1344,-130,-34,13,23634,22038,-136,18,-69,-18,8674,5160,-8008,-42,-32,38
32767,30436,1310,-134,-42,12,23656,22414,-306,20,-57,-2,8730,5234,-8026,-36,-18,40
32767,30452,1350,-129,-44,7,23688,22490,-280,-16,-47,2,8694,5216,-7856,-33,-6,38
32767,30394,1570,-126,-43,8,23678,22464,-274,-55,-38,8,8582,5272,-7886,-27,1,34
32767,30292,1586,-120,-40,8,23558,22318,-180,-79,-38,-1,8650,5320,-7900,-28,2,42
32767,30292,1584,-101,-36,7,23490,22138,-152,-85,-48,-11,8636,5356,-7786,-21,0,48
32767,30340,1582,-73,-29,5,23566,21966,-186,-69,-57,-16,8696,5398,-7828,-11,5,48
32767,30450,1572,-48,-21,-1,23738,22008,-156,-39,-48,-9,8698,5334,-7864,-14,20,58
32767,30554,1560,-39,-15,-3,23690,22164,-140,-31,-34,-1,8598,5190,-7828,-19,38,58
32767,30416,1502,-43,-11,-4,23544,22292,-188,-40,-29,5,8468,5260,-7776,-19,40,52
32767,30338,1500,-24,-7,-1,23516,22252,-318,-57,-36,9,8452,5234,-7662,-25,25,49
32767,30378,1258,6,-6,0,23570,22108,-412,-77,-54,6,8496,5278,-7630,-33,6,45
32767,30568,1190,2,-17,-1,23576,21892,-216,-84,-64,2,8566,5246,-7660,-35,-11,43
32767,30770,1286,-26,-32,2,23614,21894,-272,-61,-64,1,8618,5280,-7812,-23,-18,41
32767,30714,1392,-88,-55,3,23722,21908,-258,-24,-55,-1,8618,5308,-7814,-16,-6,38
32767,30420,1538,-148,-69,1,23680,22160,-146,4,-41,-3,8610,5436,-7840,-34,7,36
32767,30154,1792,-144,-66,8,23676,22382,-198,6,-43,3,8552,5398,-7770,-43,9,40
32767,30158,1656,-104,-54,12,23654,22440,-216,-10,-47,9,8562,5400,-7704,-40,6,49
32767,30118,1706,-69,-33,16,23632,22418,-242,-34,-56,5,8550,5328,-7602,-37,7,49
32767,30256,1498,-34,-18,17,23622,22340,-174,-52,-58,5,8510,5268,-7648,-28,-1,40
32767,30532,1448,-32,-15,10,23728,22232,-202,-64,-49,8,8536,5334,-7664,-17,-16,29
32767,30760,1342,-55,-30,9,23616,22110,-190,-67,-37,2,8598,5480,-7718,-17,-21,26
32767,30838,1398,-98,-42,12,23562,22058,-128,-47,-32,-7,8682,5590,-7884,-19,-16,37
32767,30546,1412,-127,-46,16,23572,22058,-64,-27,-49,-7,8602,5592,-7818,-36,0,57
32767,30344,1510,-121,-48,17,23618,22132,-56,-5,-62,-3,8556,5530,-7678,-59,11,59
32767,30176,1582,-100,-41,14,23562,22202,-20,-2,-67,2,8470,5396,-7554,-73,10,52
32767,30216,1560,-72,-32,16,23542,22192,-112,8,-74,9,8470,5354,-7572,-73,-8,45
32767,30364,1458,-44,-30,16,23654,22212,-104,18,-69,3,8634,5252,-7546,-54,-26,46
32767,30758,1526,-81,-40,12,23782,22302,-90,16,-55,-10,8790,5308,-7636,-27,-31,46
32767,30760,1604,-131,-49,8,23784,22426,-128,-5,-34,-11,8940,5352,-7680,-8,-22,43
32767,30424,1550,-163,-57,12,23670,22460,-24,-45,-19,-10,8894,5446,-7780,-9,14,32
32767,30052,1474,-132,-47,19,23536,22326,2,-97,-22,-9,8538,5580,-7694,-16,43,15
32767,30008,1410,-71,-29,27,23444,22156,-80,-121,-35,-7,8324,5728,-7716,-16,19,1
32767,30202,1438,-38,-22,33,23496,21890,-226,-120,-56,-9,8608,5748,-7686,-34,-10,12
32767,30492,1380,-54,-35,26,23630,21710,-204,-96,-69,-8,8892,5524,-7644,-45,-6,21
32767,30508,1320,-96,-51,23,23704,21626,-376,-54,-66,-4,8942,5452,-7636,-43,29,18
32767,30396,1444,-93,-59,23,23724,21710,-404,-3,-53,-7,8666,5524,-7692,-36,64,16
32767,30524,1548,-66,-55,20,23786,22036,-306,33,-35,-7,8388,5520,-7646,-38,63,18
32767,30600,1596,-68,-46,22,23764,22498,-156,11,-16,-6,8278,5642,-7668,-49,28,19
32767,30524,1458,-75,-45,21,23614,22696,-90,-48,-19,-1,8478,5578,-7712,-50,1,22
32767,30436,1390,-75,-48,21,23518,22556,-2,-96,-30,5,8718,5536,-7786,-36,-3,37
32767,30324,1384,-76,-53,17,23490,22288,-80,-122,-44,1,8810,5450,-7738,-26,14,39
32767,30316,1458,-71,-60,13,23606,21980,-54,-112,-56,-4,8692,5476,-7754,-15,27,36
32767,30396,1664,-70,-55,16,23756,21816,-158,-86,-50,-8,8494,5474,-7694,-14,29,34
32767,30578,1764,-71,-50,9,23664,21840,-266,-53,-38,-7,8342,5554,-7566,-12,26,32
32767,30408,1750,-74,-37,14,23632,21940,-294,-32,-39,-4,8302,5626,-7524,6,11,38
32767,30310,1638,-46,-24,15,23634,22118,-256,-36,-38,-2,8316,5676,-7468,29,-5,43
32767,30366,1464,-26,-17,13,23672,22182,-310,-47,-40,-5,8470,5776,-7504,28,-17,40
32767,30460,1354,-29,-14,10,23684,22138,-294,-67,-36,-13,8692,5786,-7500,-10,-27,31
32767,30724,1394,-63,-32,2,23588,22092,-222,-75,-34,-16,8758,5728,-7522,-43,-25,26
32767,30754,1524,-106,-48,3,23640,21998,-182,-61,-28,-13,8800,5598,-7622,-73,-17,29
32767,30572,1672,-135,-50,6,23652,22134,-64,-43,-25,-12,8874,5620,-7654,-90,0,24
32767,30318,1820,-146,-36,7,23558,22264,-70,-35,-33,-7,8774,5536,-7576,-92,21,13
32767,30202,1784,-134,-23,11,23658,22236,-100,-45,-39,0,8600,5474,-7540,-90,35,3
32767,30100,1560,-108,-11,14,23570,22064,-226,-48,-52,-8,8418,5450,-7446,-76,33,-3
32767,30032,1262,-86,-7,19,23538,22022,-214,-45,-62,-13,8424,5506,-7460,-47,11,-7
32767,30158,1020,-57,-9,25,23568,21930,-260,-32,-67,-11,8776,5466,-7494,-15,-24,6
32767,30314,1010,-40,-24,24,23662,21902,-274,-14,-60,-11,8906,5496,-7478,-7,-7,10
32767,30906,1280,-74,-50,20,23724,22000,-304,-3,-50,-10,8670,5568,-7648,-4,24,7
32767,30730,1582,-136,-62,18,23704,22060,-306,-3,-36,-8,8372,5712,-7710,-1,31,6
32767,30616,1818,-150,-59,16,23688,22164,-308,-14,-30,-7,8424,5884,-7628,-17,10,12
32767,30312,1808,-122,-35,21,23548,22188,-196,-33,-31,-12,8568,5876,-7538,-52,-3,20
32767,30242,1634,-96,-20,17,23588,22172,-98,-54,-46,-14,8694,5720,-7470,-84,-1,16
32767,30304,1508,-90,-14,13,23632,22052,-108,-52,-47,-14,8838,5526,-7530,-94,10,7
32767,30348,1422,-104,-20,10,23604,21946,-96,-47,-41,-13,8790,5376,-7574,-86,26,-4
32767,30336,1360,-119,-27,9,23634,21998,-148,-16,-40,-8,8688,5406,-7528,-77,32,-8
32767,30232,1340,-129,-36,13,23656,22078,-72,-19,-41,-9,8572,5438,-7570,-60,32,-9
32767,30142,1378,-116,-36,17,23552,22020,-84,-40,-41,-12,8500,5514,-7598,-42,26,-10
32767,30206,1354,-87,-35,24,23506,21972,-102,-51,-45,-12,8468,5606,-7630,-25,12,-6
32767,30306,1342,-79,-42,23,23578,21930,-126,-44,-49,-15,8548,5622,-7656,-18,-7,3
32767,30442,1362,-89,-50,16,23606,22000,-134,-34,-49,-15,8712,5690,-7686,-18,-11,11
32767,30546,1478,-116,-55,15,23654,21994,-220,-23,-46,-10,8802,5622,-7702,-25,3,20
32767,30500,1676,-119,-58,13,23662,22066,-192,-21,-42,-6,8718,5592,-7634,-30,21,23
32767,30428,1704,-114,-48,13,23638,22112,-270,-26,-37,-3,8632,5630,-7598,-35,23,22
32767,30172,1658,-104,-34,9,23672,22074,-298,-37,-35,-11,8660,5576,-7540,-40,21,23
32767,30104,1528,-70,-23,6,23616,22112,-210,-51,-30,-18,8630,5610,-7436,-42,24,18
32767,30290,1458,-56,-19,5,23564,22068,-180,-51,-32,-19,8630,5492,-7504,-36,23,13
32767,30282,1284,-67,-25,4,23554,21998,-114,-37,-39,-16,8694,5548,-7514,-19,14,10
32767,30290,1174,-67,-34,4,23594,22046,-118,-28,-46,-16,8698,5602,-7676,-7,9,8
32767,30290,1188,-64,-41,7,23608,22094,-128,-22,-47,-4,8752,5598,-7558,-13,17,10
32767,30368,1282,-68,-49,7,23620,22044,-210,-22,-44,0,8698,5570,-7586,-18,29,10
32767,30346,1502,-79,-61,6,23564,22040,-172,-25,-44,-8,8510,5698,-7528,-23,37,6
32767,30272,1604,-85,-59,7,23618,21902,-122,-36,-39,-14,8404,5706,-7416,-28,30,8
32767,30272,1558,-72,-51,7,23542,21858,-80,-39,-40,-17,8474,5644,-7502,-37,14,11
32767,30302,1540,-71,-47,7,23546,21876,-128,-29,-43,-19,8682,5590,-7400,-40,12,14
32767,30368,1490,-72,-49,4,23498,21960,-116,-23,-45,-17,8806,5516,-7488,-39,19,12
32767,30240,1542,-79,-46,5,23608,22040,-94,-9,-49,-7,8660,5574,-7478,-38,30,8
32767,30260,1548,-72,-45,7,23634,22048,-92,-10,-46,-4,8576,5524,-7532,-37,30,3
32767,30250,1582,-77,-41,8,23642,22078,-162,-10,-38,-10,8470,5564,-7524,-41,14,4
32767,30110,1568,-78,-36,9,23582,22064,-118,-24,-37,-13,8646,5498,-7488,-37,5,8
32767,30200,1534,-65,-31,7,23596,22028,-252,-39,-41,-13,8754,5530,-7460,-23,7,8
32767,30370,1574,-78,-31,7,23620,22016,-290,-42,-41,-15,8696,5566,-7530,-12,12,4
32767,30340,1460,-96,-33,7,23590,21960,-220,-33,-43,-12,8674,5590,-7598,-6,14,-4
32767,30356,1358,-83,-34,10,23562,21984,-212,-28,-41,-12,8662,5646,-7568,-18,17,-4
32767,30290,1386,-86,-38,9,23586,21998,-176,-23,-37,-14,8640,5696,-7536,-35,21,0
32767,30274,1386,-99,-47,9,23630,22048,-292,-30,-31,-13,8730,5660,-7554,-44,23,3
32767,30108,1424,-99,-53,11,23522,22002,-178,-35,-31,-10,8768,5532,-7496,-41,24,4
32767,30154,1520,-70,-50,12,23546,21984,-136,-43,-35,-11,8694,5550,-7582,-30,35,6
32767,30326,1514,-55,-48,7,23566,21922,-156,-44,-39,-11,8540,5530,-7430,-32,41,5
32767,30474,1510,-64,-45,1,23610,21862,-140,-37,-40,-10,8538,5580,-7548,-32,30,6
32767,30512,1608,-80,-42,0,23566,21926,-168,-29,-39,-10,8622,5550,-7496,-25,17,11
32767,30328,1524,-89,-44,-1,23558,21970,-274,-23,-38,-10,8676,5498,-7486,-12,19,8
32767,30104,1486,-79,-40,4,23540,22004,-168,-21,-33,-11,8744,5508,-7596,-9,27,2
32767,30014,1450,-55,-42,8,23512,22018,-126,-18,-37,-12,8584,5490,-7496,-16,33,-5
32767,30052,1460,-45,-42,10,23576,22000,-206,-18,-45,-15,8588,5528,-7474,-22,29,-3
32767,30310,1574,-44,-39,3,23640,22086,-238,-29,-45,-11,8510,5644,-7416,-23,16,-2
32767,30424,1614,-81,-40,2,23590,22126,-228,-38,-44,-7,8626,5678,-7506,-21,11,4
32767,30324,1508,-94,-40,4,23614,22108,-312,-42,-39,-6,8650,5662,-7516,-16,14,7
32767,30290,1516,-80,-33,9,23634,22054,-270,-40,-36,-7,8702,5682,-7586,-22,19,4
32767,30252,1464,-71,-29,9,23578,22040,-274,-50,-33,-14,8762,5604,-7546,-37,29,-1
32767,30266,1476,-68,-29,6,23608,21992,-324,-59,-34,-9,8660,5534,-7594,-49,35,-4
32767,30306,1500,-78,-35,1,23584,21942,-340,-63,-27,0,8642,5528,-7516,-48,35,-3
32767,30216,1454,-88,-34,4,23602,21918,-318,-65,-26,1,8612,5550,-7582,-37,31,-1
32767,30156,1480,-72,-32,4,23558,21930,-266,-66,-29,-6,8618,5492,-7442,-32,30,0
32767,30288,1422,-63,-31,4,23616,21968,-284,-60,-24,-10,8654,5486,-7490,-22,24,-2
32767,30270,1394,-68,-34,4,23522,21948,-192,-54,-20,-14,8672,5484,-7498,-19,22,-3
32767,30298,1456,-83,-44,3,23566,21950,-98,-47,-21,-15,8710,5486,-7472,-25,25,-3
32767,30246,1426,-96,-50,4,23488,21898,-8,-36,-28,-14,8704,5582,-7586,-30,32,-2
32767,30114,1572,-78,-44,6,23468,21946,-58,-33,-36,-9,8644,5514,-7574,-30,32,-4
32767,30222,1596,-60,-34,9,23434,21912,-104,-21,-38,-6,8606,5602,-7456,-29,27,-3
32767,30346,1510,-71,-36,6,23454,21910,-132,-19,-42,-8,8600,5536,-7524,-35,22,-3
32767,30306,1452,-95,-39,2,23522,21878,-156,-20,-42,-9,8642,5506,-7668,-32,24,-1
32767,30164,1422,-104,-42,3,23544,21820,-250,-24,-43,-15,8706,5528,-7562,-26,24,4
32767,30068,1392,-87,-41,9,23658,21812,-248,-19,-43,-15,8786,5452,-7598,-26,31,4
32767,30154,1512,-65,-38,10,23592,21850,-304,-18,-36,-14,8694,5460,-7524,-26,40,0
32767,30234,1600,-46,-34,11,23564,21862,-272,-16,-32,-10,8546,5532,-7508,-20,39,-7
32767,30390,1558,-54,-35,3,23492,21924,-274,-21,-39,-5,8542,5634,-7506,-17,25,-2
32767,30526,1500,-100,-41,-3,23474,21934,-210,-29,-43,-4,8664,5650,-7580,-18,20,6
32767,30212,1392,-131,-46,-6,23606,21956,-314,-39,-42,-4,8812,5626,-7576,-22,30,11
32767,30148,1484,-117,-47,-8,23554,21948,-254,-59,-31,-11,8766,5550,-7522,-37,46,0
32767,30302,1306,-106,-51,-8,23498,21912,-188,-56,-36,-11,8672,5522,-7566,-57,49,-18
32767,30468,1462,-117,-57,-6,23472,21890,-110,-39,-41,-9,8640,5520,-7620,-64,47,-21
32767,30310,1486,-135,-64,-2,23488,21892,-182,-28,-42,-7,8574,5546,-7706,-66,54,-18
32767,30310,1448,-154,-71,-1,23562,21932,-312,-19,-41,1,8518,5542,-7676,-63,54,-13
32767,29908,1374,-163,-79,-4,23578,21994,-302,-24,-39,3,8580,5526,-7522,-55,40,-9
32767,29938,1380,-129,-75,-2,23532,21920,-348,-30,-34,2,8642,5408,-7608,-44,26,-5
32767,29994,1522,-97,-72,2,23516,21912,-322,-37,-32,0,8652,5414,-7608,-36,33,1
32767,30196,1586,-98,-67,1,23484,21832,-300,-42,-29,-3,8476,5384,-7648,-37,42,5
32767,30038,1754,-104,-60,0,23582,21852,-174,-31,-33,-3,8394,5380,-7612,-27,27,7
32767,30094,1750,-87,-52,-6,23580,21924,-116,-17,-27,-1,8492,5438,-7544,-26,7,13
32767,30146,1616,-93,-49,-5,23556,21970,-188,2,-20,4,8696,5398,-7570,-23,6,21
32767,29972,1600,-99,-42,-2,23430,22112,-148,23,-30,17,8658,5390,-7482,-5,19,20
32767,29886,1658,-83,-35,-1,23542,22074,-186,31,-40,15,8648,5442,-7446,7,19,13
32767,29830,1594,-54,-24,5,23506,22072,-214,28,-33,17,8622,5498,-7542,1,6,14
32767,30096,1464,-45,-26,2,23488,21902,-360,20,-24,27,8760,5530,-7576,-8,0,11
32767,30210,1486,-73,-33,3,23476,21840,-388,36,-20,36,8788,5442,-7550,-17,17,10
32767,30090,1544,-93,-36,7,23534,21894,-422,40,-24,42,8598,5458,-7622,-19,33,1
32767,29960,1576,-82,-31,10,23504,21876,-240,68,-13,58,8566,5544,-7520,-30,29,-4
32767,30006,1530,-64,-30,11,23522,21918,-280,81,-20,67,8672,5542,-7602,-45,12,-5
32767,30170,1506,-80,-32,9,23558,22112,-288,92,-26,51,8770,5528,-7660,-37,9,0
32767,30010,1416,-106,-42,13,23486,22276,-454,88,-25,45,8692,5540,-7596,-27,22,5
32767,29866,1558,-93,-39,16,23440,22420,-482,53,-31,39,8616,5454,-7560,-32,35,8
32767,30030,1724,-69,-39,15,23466,22294,-362,19,-31,35,8590,5374,-7576,-33,30,3
32767,30130,1682,-73,-40,14,23510,22166,-398,-1,-29,34,8686,5372,-7508,-21,22,-4
32767,30074,1564,-77,-37,14,23586,22122,-374,4,-36,33,8688,5424,-7592,-6,21,-7
32767,30060,1364,-70,-36,13,23602,22238,-392,15,-30,23,8694,5428,-7668,-8,29,-1
32767,30176,1408,-76,-38,11,23448,22272,-374,-4,-20,21,8652,5462,-7686,-12,35,4
32767,30008,1380,-94,-41,15,23456,22296,-430,-5,-12,29,8602,5424,-7610,-8,36,1
32767,29924,1466,-75,-46,15,23424,22320,-436,-18,-16,26,8524,5504,-7490,1,35,-4
32767,29970,1500,-60,-47,19,23564,22336,-326,-24,-23,17,8516,5494,-7584,8,27,1
32767,30124,1466,-58,-50,19,23458,22446,-308,-39,-25,13,8574,5472,-7568,25,15,12
32767,30234,1526,-70,-55,12,23440,22348,-436,-51,-29,17,8602,5468,-7616,45,12,17
32767,30208,1766,-86,-51,13,23380,22184,-452,-77,-30,11,8600,5478,-7566,55,10,23
32767,30144,1768,-77,-48,8,23420,22052,-460,-53,-39,9,8608,5520,-7472,45,7,21
32767,30126,1746,-66,-38,7,23532,22078,-514,-17,-41,7,8592,5458,-7384,41,-6,13
32767,29970,1632,-49,-24,7,23568,22226,-496,2,-34,0,8624,5454,-7408,43,-23,2
32767,30110,1558,-21,-20,5,23556,22352,-610,7,-16,-7,8752,5378,-7488,61,-36,-2
32767,30186,1456,-42,-31,1,23428,22420,-634,-19,-5,-11,8746,5350,-7622,88,-28,3
32767,30150,1610,-60,-36,1,23450,22312,-546,-41,2,-12,8680,5316,-7658,108,-10,3
32767,30014,1546,-54,-39,3,23520,22286,-460,-64,1,-18,8614,5506,-7664,119,-1,6
32767,29974,1476,-23,-33,9,23208,22186,-612,-76,0,-25,8602,5648,-7548,110,-3,7
32767,30122,1478,-7,-26,5,23324,22596,-66,-84,-2,-12,8686,5648,-7472,77,-16,0
32767,30246,1572,-38,-28,0,23576,22932,-924,1,3,150,8784,5592,-7522,49,-10,-3
32767,30108,1574,-59,-37,2,23436,23140,-264,-42,-24,137,8776,5612,-7524,36,11,-6
32767,29972,1502,-58,-42,9,23818,23746,-774,-64,-30,114,8680,5730,-7536,22,28,-4
32767,30016,1522,-29,-34,5,23330,23310,-426,-178,-31,163,8516,5772,-7420,-3,33,-1
32767,30310,1658,-30,-28,4,23516,22864,-436,-230,-61,119,8506,5658,-7410,-28,22,-1
32767,30340,1490,-61,-39,8,23890,22742,-614,-261,-69,102,8608,5552,-7436,-39,5,-9
32767,30128,1404,-78,-47,8,23738,22200,-404,-247,-48,137,8794,5372,-7588,-35,6,-15
32767,29988,1480,-75,-54,13,23582,21956,-542,-186,-45,134,8764,5416,-7486,-24,29,-11
32767,30122,1516,-68,-60,7,23386,21990,-426,-97,-62,137,8608,5506,-7466,-18,35,-10
32767,30298,1626,-89,-57,3,23368,21968,-482,-34,-66,158,8586,5548,-7462,-5,19,-8
32767,30206,1698,-115,-48,4,23376,22032,-228,-43,-66,150,8600,5546,-7420,-1,4,-5
32767,30002,1736,-103,-46,3,23670,22404,-504,-16,-57,150,8728,5464,-7552,-1,5,-7
32767,29960,1588,-81,-44,11,23532,22488,-450,-35,-27,178,8764,5506,-7484,-2,24,-13
32767,30056,1548,-76,-41,13,23186,22498,-378,-76,-27,161,8548,5542,-7488,0,40,-16
32767,29982,1476,-79,-43,10,23118,22496,-204,-125,-48,120,8418,5584,-7354,-4,30,-14
32767,29996,1378,-82,-52,10,23582,22520,-338,-143,-43,138,8630,5474,-7424,-18,1,-10
32767,29928,1208,-69,-53,17,23558,22350,-176,-153,-24,171,8822,5390,-7438,-20,1,-13
32767,29930,1228,-51,-66,21,23544,22610,-444,-127,-18,157,8824,5482,-7624,-17,28,-20
32767,30288,1526,-62,-81,19,23428,22618,-514,-125,-20,168,8674,5368,-7418,-39,55,-34
32767,30136,1614,-87,-89,18,23592,22562,-478,-140,-28,154,8626,5504,-7546,-72,36,-58
32767,32100,1596,-55,-112,263,23682,22464,-466,-169,-10,124,8790,5642,-7676,-77,31,-45
32767,31384,1606,-125,-91,116,23432,22356,-562,-129,-12,128,8996,5830,-7884,-74,37,-28
32767,32767,2094,-143,-73,183,23580,22470,-498,-101,-18,120,8916,6062,-7960,-89,82,-6
32767,31510,1614,-220,-60,117,23706,22508,-492,-109,-13,103,8604,5946,-7726,-175,115,0
32767,30660,1594,-193,-62,143,23488,22384,-408,-122,5,76,8670,5782,-7672,-217,104,7
32767,30820,1822,-182,-50,206,23554,22506,-584,-108,0,89,8712,5518,-7614,-236,106,18
32767,30530,2050,-177,-25,167,23082,22382,-464,-107,9,97,8676,5336,-7586,-218,109,33
32767,31060,1534,-131,-39,189,23252,22588,-354,-101,-23,76,8630,5094,-7588,-168,101,44
32767,30096,1706,-145,-46,202,23686,22844,-520,-98,-13,112,8702,5038,-7540,-111,93,43
32767,30320,1580,-136,-46,179,23540,22738,-424,-133,16,135,8718,5034,-7504,-69,97,35
32767,30440,1536,-122,-30,164,23562,22892,-652,-151,14,116,8528,5096,-7436,-60,103,18
32767,29892,1650,-100,-31,95,23616,22896,-460,-181,24,127,8360,5274,-7520,-61,99,6
32767,30442,1420,-32,-34,208,23746,22746,-588,-185,31,125,8322,5372,-7658,-55,68,16
32767,30256,1406,-62,-27,191,23554,22778,-652,-197,35,116,8538,5270,-7708,-55,54,22
32767,30222,1738,-130,-38,178,23314,22618,-352,-210,30,110,8600,5300,-7672,-88,70,2
32767,30564,1760,-122,-38,147,23490,22608,-462,-203,13,100,8500,5332,-7636,-128,88,-19
32767,30502,1636,-118,-25,211,23520,22566,-404,-186,13,107,8362,5412,-7758,-150,73,-21
32767,30472,1694,-162,-15,184,23646,22540,-472,-163,14,107,8460,5488,-7866,-143,56,-12
32767,30440,1598,-172,-15,194,23664,22692,-588,-137,15,116,8634,5536,-7932,-152,56,-6
32767,30204,1546,-172,-5,188,23394,22610,-354,-154,28,109,8642,5432,-7940,-171,72,-8
32767,30376,1658,-180,-13,205,23414,22696,-544,-178,25,94,8636,5240,-7930,-199,79,-20
32767,30188,1128,-192,-21,198,23352,22710,-532,-191,23,108,8588,5096,-7912,-192,72,-19
32767,30240,1414,-168,-15,205,23340,22586,-470,-193,21,112,8584,4920,-7986,-165,72,-15
32767,30928,1542,-138,-19,145,23458,22586,-520,-186,17,102,8582,4924,-7998,-133,75,-14
32767,30920,1492,-186,-16,118,23642,22690,-582,-166,16,116,8496,5048,-7920,-99,73,-14
32767,29990,1400,-187,-37,162,23612,22750,-642,-166,42,111,8504,5072,-7942,-69,67,-8
32767,29740,1328,-144,-46,136,23418,22750,-498,-191,42,95,8536,5120,-7870,-56,55,-12
32767,30076,1316,-121,-41,153,23462,22740,-548,-186,30,100,8546,5136,-7954,-56,58,-16
32767,30170,1440,-118,-52,144,23540,22610,-566,-195,30,101,8504,4970,-7944,-78,65,-41
32767,30710,1516,-147,-57,99,23642,22734,-664,-164,28,105,8446,5056,-7926,-101,68,-55
32767,30462,1556,-170,-46,148,23494,22738,-570,-153,25,97,8432,5026,-7888,-115,57,-62
32767,30572,1428,-132,-36,140,23520,22780,-640,-149,23,83,8574,5166,-7950,-98,38,-58
32767,30906,1356,-167,-33,174,23580,22650,-532,-155,17,76,8634,5306,-7994,-100,42,-56
32767,30798,1426,-207,-41,177,23318,22484,-588,-144,19,72,8660,5344,-8052,-127,60,-56
32767,30858,1126,-203,-32,218,23324,22484,-614,-106,-1,86,8654,5306,-8124,-162,73,-57
32767,30982,1318,-191,-34,169,23526,22692,-576,-68,-11,89,8536,5152,-8154,-190,80,-58
32767,30300,1254,-220,-39,158,23758,23010,-598,-42,-8,96,8498,4924,-8134,-205,80,-63
32767,30614,1542,-190,-55,206,23504,23082,-656,-65,18,107,8494,4790,-8068,-198,79,-63
32767,30592,1606,-208,-53,192,23272,23082,-698,-92,10,100,8466,4716,-8030,-161,69,-63
32767,30580,1616,-211,-43,183,23306,23016,-706,-131,9,95,8452,4676,-8042,-124,54,-59
32767,30566,1418,-187,-41,183,23346,22816,-664,-133,2,104,8440,4742,-8038,-96,45,-58
32767,29908,1306,-184,-38,161,23528,22804,-642,-124,2,101,8508,4806,-8004,-87,41,-65
32767,30960,1596,-160,-46,176,23600,22726,-626,-113,7,104,8504,4848,-8122,-93,43,-72
32767,31194,1390,-194,-50,164,23536,22798,-630,-128,22,105,8520,4792,-8120,-104,48,-81
32767,30712,1428,-245,-55,146,23528,22824,-718,-134,30,110,8482,4794,-8170,-112,54,-89
32767,30634,1524,-228,-48,174,23366,22688,-522,-149,35,107,8420,4854,-8052,-115,53,-92
32767,30564,1246,-183,-25,209,23436,22684,-506,-144,33,100,8506,4920,-8090,-118,49,-88
32767,30896,1374,-153,-20,185,23434,22700,-528,-124,15,106,8574,4842,-8098,-127,50,-82
32767,30930,1338,-212,-33,175,23484,22742,-586,-81,9,104,8638,4788,-8142,-141,59,-87
32767,30918,1332,-259,-50,186,23376,22770,-580,-90,4,95,8538,4674,-8270,-152,72,-93
32767,30566,1296,-230,-44,150,23510,22856,-760,-75,-4,99,8406,4702,-8174,-149,71,-100
32767,30550,1306,-190,-40,187,23612,23014,-658,-81,15,114,8522,4726,-8380,-136,65,-95
32767,30378,1542,-162,-38,173,23328,22994,-788,-84,15,101,8516,4716,-8336,-131,67,-87
32767,30650,1512,-202,-64,172,23256,22942,-930,-76,0,87,8636,4612,-8284,-130,72,-77
32767,30088,1370,-248,-48,160,23412,22778,-786,-64,-17,82,8566,4422,-8276,-132,79,-71
32767,30286,1464,-187,-67,152,23542,22714,-798,-57,-17,66,8482,4298,-8254,-115,81,-79
32767,30676,1524,-142,-42,158,23440,22698,-760,-36,-7,72,8358,4286,-8322,-87,77,-88
32767,30568,1524,-122,-30,173,23212,22778,-734,-10,-16,81,8428,4428,-8326,-56,67,-86
32767,31210,1276,-99,-10,179,23406,22964,-838,19,-25,86,8536,4578,-8296,-38,66,-82
32767,30682,1246,-134,-20,167,23460,23128,-922,10,-12,92,8600,4622,-8382,-45,72,-80
32767,31078,1336,-148,-35,169,23436,23098,-878,-12,-8,77,8610,4560,-8350,-71,84,-84
32767,31222,1368,-155,-32,142,23368,23080,-902,-40,5,73,8494,4454,-8494,-111,106,-90
32767,30930,1308,-171,-22,159,23266,22888,-884,-35,17,79,8424,4342,-8418,-138,119,-94
32767,30856,1326,-119,-21,159,23096,22942,-958,-15,5,84,8468,4250,-8300,-146,116,-90
32767,31108,1296,-111,-1,168,23190,23110,-1028,10,-1,94,8466,4170,-8312,-145,107,-84
32767,31274,1342,-114,-9,148,23530,23382,-962,-8,12,111,8538,4160,-8330,-129,100,-88
32767,31314,1222,-167,-12,161,23462,23334,-1066,-42,28,93,8476,4164,-8426,-108,97,-87
32767,30888,1284,-174,-30,150,23296,23146,-1026,-67,26,80,8476,4126,-8376,-112,94,-93
32767,30926,1244,-166,-44,151,23196,22984,-1098,-63,10,57,8496,4160,-8460,-111,89,-93
32767,30862,1510,-182,-30,161,23376,22946,-960,-22,1,68,8502,4124,-8560,-91,92,-90
32767,30966,1546,-160,-42,164,23514,23012,-966,32,-7,103,8464,4166,-8468,-76,91,-90
32767,30846,1522,-171,-18,166,23664,23340,-936,38,10,92,8452,4112,-8488,-86,85,-87
32767,30606,1558,-139,-27,145,23578,23514,-988,25,22,90,8458,4016,-8472,-98,82,-89
32767,31082,1424,-126,-12,154,23248,23448,-964,-4,32,77,8456,3990,-8572,-94,82,-93
32767,31400,1460,-140,-11,147,23138,23248,-938,-7,9,70,8508,3962,-8760,-81,80,-91
32767,31228,1404,-175,-7,144,23398,23202,-852,15,-10,77,8642,4042,-8834,-69,89,-86
32767,31010,1352,-172,-14,138,23514,23282,-930,59,-12,83,8622,3934,-8842,-83,112,-84
32767,30590,1380,-164,-9,135,23548,23504,-980,81,-4,81,8534,3802,-8684,-116,131,-82
32767,30786,1372,-108,-8,112,23560,23676,-1032,66,2,76,8444,3602,-8700,-113,129,-83
32767,30890,1328,-72,13,118,23478,23582,-1046,42,12,61,8352,3492,-8710,-81,115,-86
32767,31036,1210,-35,5,123,23288,23466,-1006,31,-1,54,8390,3488,-8792,-42,100,-91
32767,31190,1262,-67,3,125,23376,23388,-954,34,-18,50,8534,3532,-8866,-15,104,-94
32767,31312,1254,-89,9,109,23602,23496,-1014,50,-9,57,8500,3620,-8810,-7,106,-91
32767,31398,996,-99,4,109,23360,23474,-1066,59,-4,60,8502,3600,-8808,2,104,-85
32767,30978,1132,-93,-4,99,23282,23446,-1030,63,-8,45,8486,3566,-8874,6,104,-96
32767,31090,898,-75,2,112,23308,23558,-976,49,-13,44,8500,3586,-8990,0,106,-119
32767,31024,1082,-54,10,139,23272,23494,-1076,49,-4,54,8538,3540,-9022,-22,122,-131
32767,31270,1038,-33,0,146,23374,23598,-1094,62,-16,55,8408,3564,-8990,-47,140,-140
32767,31376,1128,-51,31,152,23484,23686,-1146,52,-7,45,8358,3570,-9042,-55,140,-133
32767,31618,1166,-75,4,133,23442,23710,-1200,44,11,41,8428,3504,-9070,-47,131,-123
32767,31194,912,-139,4,124,23342,23658,-1200,25,24,25,8556,3446,-9110,-30,126,-118
32767,30850,1088,-141,2,122,23388,23598,-1186,20,13,16,8730,3344,-9160,-22,134,-130
32767,31262,974,-81,-1,133,23432,23666,-1144,40,11,17,8698,3232,-9230,-36,157,-145
32767,31112,1172,-59,20,128,23470,23804,-1192,67,6,25,8496,3220,-9146,-37,176,-144
32767,31086,1160,-30,25,128,23388,23954,-1168,75,2,32,8394,3204,-9074,-16,158,-134
32767,31846,1106,-8,20,116,23312,24090,-1222,71,4,25,8404,3254,-9140,19,131,-121
32767,31800,1104,-68,10,119,23152,24000,-1354,65,-17,16,8568,3232,-9244,41,119,-115
32767,31346,1194,-105,-17,103,23380,23990,-1342,72,-34,12,8576,3168,-9376,44,135,-128
32767,31418,1046,-108,-10,127,23640,23990,-1300,72,-34,15,8498,3254,-9386,36,157,-137
32767,31118,1238,-22,10,141,23576,23980,-1368,67,-11,26,8376,3196,-9380,32,173,-135
32767,31246,1304,25,21,147,23366,23954,-1424,62,8,30,8362,3236,-9286,38,167,-131
32767,31828,1288,5,24,129,23336,23958,-1496,55,6,25,8490,3246,-9270,30,147,-118
32767,31864,1086,-62,11,97,23158,23946,-1388,46,5,8,8646,3108,-9434,35,146,-99
32767,31526,1136,-92,-1,92,23156,23870,-1358,44,3,2,8618,3020,-9490,42,162,-103
32767,31188,1090,-58,3,105,23334,23894,-1306,43,-4,6,8492,3032,-9444,27,179,-119
32767,31256,1230,0,3,103,23336,23894,-1462,58,10,10,8322,3066,-9520,8,180,-124
32767,31464,1248,19,10,109,23282,23900,-1428,87,10,9,8318,2938,-9494,14,158,-119
32767,31784,1132,-18,-8,91,23276,24078,-1380,80,2,-1,8500,2884,-9446,30,136,-118
32767,31726,1164,-52,3,75,23404,24072,-1522,71,11,-8,8644,2846,-9542,27,140,-123
32767,31460,1240,-36,6,72,23372,24070,-1370,44,18,-9,8532,2696,-9638,23,155,-136
32767,31842,1160,-7,10,85,23118,24046,-1458,37,16,-38,8298,2720,-9658,30,159,-149
32767,31590,1318,-16,23,92,23166,24008,-1434,54,5,-19,8292,2754,-9736,27,147,-146
32767,32032,1154,-19,14,90,23494,24008,-1536,58,-9,-3,8430,2786,-9604,30,128,-135
32767,31862,916,-51,20,81,23576,24058,-1474,52,1,-10,8580,2698,-9736,29,117,-125
32767,31524,916,-54,8,68,23444,24080,-1546,42,15,-21,8666,2602,-9798,37,122,-131
32767,31680,916,-26,4,77,23346,24064,-1506,33,14,-27,8612,2592,-9890,42,143,-138
32767,31540,1000,-32,0,89,23338,23942,-1436,16,13,-40,8446,2662,-9904,44,151,-140
32767,31974,1038,-13,2,105,23336,23976,-1414,23,12,-52,8354,2682,-9924,39,145,-133
32767,32158,1154,-35,6,74,23060,24036,-1520,36,1,-44,8496,2512,-10014,47,131,-120
32767,32174,1158,-57,-7,57,23100,24090,-1486,66,-11,-36,8658,2442,-10080,61,138,-114
32767,31906,1238,-58,5,42,23206,24228,-1620,75,-16,-36,8648,2430,-10022,64,155,-115
32767,32150,1120,-29,11,38,23338,24264,-1680,54,-18,-54,8566,2402,-9952,56,169,-118
32767,32000,1018,-25,28,35,23134,24202,-1930,83,-33,-87,8456,2464,-10044,58,162,-123
32767,32208,872,15,29,60,23198,24128,-2072,82,-29,-86,8350,2428,-10068,64,142,-127
32767,32112,594,22,26,40,23168,24082,-1918,88,-25,-90,8510,2336,-10046,62,127,-122
32767,32236,906,-24,1,51,23220,24146,-1954,99,-37,-89,8586,2270,-10132,51,133,-123
32767,32108,970,-64,5,35,23194,24196,-1860,96,-14,-83,8570,2172,-10114,32,163,-141
32767,31948,912,-59,1,30,23096,24198,-1896,93,-27,-74,8416,2094,-10118,26,168,-147
32767,31938,966,-44,9,37,23028,24198,-1908,90,-32,-79,8380,2082,-10190,38,154,-141
32767,32110,872,-19,16,46,23096,24244,-1902,70,-37,-77,8464,2144,-10200,58,135,-134
32767,32060,814,-5,30,49,23174,24170,-1788,46,-25,-75,8504,2102,-10156,58,134,-132
32767,31884,846,-11,19,36,22896,23984,-1892,43,-28,-83,8602,2118,-10272,37,145,-138
32767,32256,842,-26,12,29,22856,23838,-1910,46,-28,-99,8554,2012,-10282,35,140,-138
32767,31866,812,-58,2,9,23044,23938,-1898,74,-54,-87,8556,1906,-10286,52,132,-137
32767,32116,942,-42,-11,32,23078,24040,-2074,86,-24,-72,8628,1844,-10326,63,129,-139
32767,31946,880,-25,14,29,23054,24252,-2058,101,-27,-64,8652,1850,-10278,67,120,-138
32767,32076,974,-9,10,28,22988,24304,-2070,71,-19,-65,8518,1990,-10256,76,113,-141
32767,32456,1044,-14,23,21,23020,24244,-2074,55,-24,-71,8500,1976,-10236,76,98,-133
32767,32484,894,-39,13,18,23090,24162,-1958,34,-36,-80,8590,2040,-10278,76,85,-123
32767,32164,858,-84,11,19,22790,23996,-2116,38,-19,-92,8626,2002,-10348,69,81,-115
32767,31944,842,-68,-10,9,22896,24028,-1978,46,-42,-79,8648,1896,-10464,46,90,-115
32767,31958,856,-56,-1,12,22988,24014,-2040,35,-42,-73,8550,1708,-10480,24,97,-125
32767,32258,1046,-22,3,16,22574,23990,-2124,26,-10,-67,8414,1662,-10494,23,93,-138
32767,32420,1038,-36,-1,18,22576,23890,-2100,15,-26,-56,8524,1694,-10460,42,81,-134
32767,32190,1080,-66,11,3,22794,23814,-2054,7,-31,-71,8618,1608,-10488,41,77,-125
32767,32170,888,-59,21,-14,22884,23772,-2158,11,-21,-84,8698,1512,-10462,44,78,-122
32767,32330,700,-27,11,-1,22894,23812,-2112,17,-16,-75,8706,1438,-10556,52,71,-120
32767,32132,656,-43,21,-8,22802,23880,-2092,11,-4,-75,8810,1444,-10734,69,66,-121
32767,32270,572,-54,2,-4,22818,23942,-2164,19,4,-74,8820,1392,-10784,73,78,-123
32767,32154,684,-56,3,-17,22844,23892,-2202,27,1,-74,8710,1464,-10664,74,90,-132
32767,32120,722,-44,19,-24,22878,23984,-2258,49,-6,-91,8638,1546,-10642,67,84,-131
32767,32248,682,-25,24,-26,22738,24132,-2282,54,-1,-99,8728,1430,-10710,72,74,-121
32767,32436,472,-23,7,-33,22756,24106,-2232,45,-15,-88,8766,1388,-10602,83,77,-118
32767,32448,418,-60,2,-26,22888,24084,-2284,27,-11,-86,8794,1356,-10722,93,82,-115
32767,32066,574,-58,-10,-31,22890,24044,-2378,18,-8,-82,8812,1278,-10844,99,102,-106
32767,32164,594,-30,-7,-33,22676,23942,-2190,13,-2,-87,8814,1244,-10796,98,111,-101
32767,32316,654,-5,1,-51,22646,23922,-2284,20,-24,-95,8848,1298,-10652,100,104,-106
32767,32380,742,15,-1,-48,22634,23876,-2336,27,-18,-92,8820,1260,-10714,112,106,-98
32767,32332,728,7,-3,-54,22832,23802,-2222,18,-20,-85,8798,1322,-10672,121,109,-93
32767,32292,564,22,9,-75,22688,23792,-2376,-8,3,-105,8822,1280,-10572,115,107,-82
32767,32364,788,45,-5,-42,22432,23638,-2256,-23,7,-107,8820,1242,-10664,116,105,-81
32767,32688,324,31,-1,-57,22444,23508,-2296,-15,-10,-103,8742,1184,-10658,115,112,-82
32767,32346,606,26,-17,-39,22508,23580,-2334,12,-8,-102,8742,1132,-10684,121,111,-88
32767,32330,634,32,-12,-50,22656,23624,-2278,32,-7,-102,8644,1160,-10706,113,107,-82
32767,32590,628,22,-15,-62,22654,23728,-2478,40,5,-108,8692,1196,-10618,101,96,-76
32767,32558,730,5,-24,-51,22528,23810,-2500,43,14,-105,8830,1172,-10702,91,82,-75
32767,32396,708,-14,-12,-54,22522,23740,-2422,28,-1,-120,8860,1076,-10722,90,82,-71
32767,32322,808,12,-25,-46,22662,23788,-2462,23,-9,-126,8902,1018,-10710,87,94,-77
32767,32188,588,8,-9,-50,22592,23758,-2520,19,1,-114,8738,1022,-10698,72,106,-82
32767,32140,690,25,-10,-49,22496,23800,-2568,21,-1,-109,8664,960,-10610,72,95,-89
32767,32604,638,19,-10,-55,22664,23756,-2568,27,-4,-109,8788,960,-10732,83,72,-81
32767,32494,558,-18,-13,-41,22780,23730,-2478,22,-10,-112,8818,940,-10768,94,62,-67
32767,32504,532,-28,-23,-48,22628,23738,-2574,16,0,-123,8960,954,-10822,99,65,-66
32767,32192,596,-27,-15,-41,22630,23714,-2438,14,-14,-113,8942,912,-10864,98,82,-62
32767,32370,704,0,-26,-34,22556,23642,-2478,10,2,-112,8828,926,-10752,91,95,-67
32767,32362,682,0,-16,-39,22560,23588,-2590,31,-16,-108,8722,920,-10640,68,81,-77
32767,32244,674,-13,-14,-57,22550,23576,-2480,39,-26,-105,8822,712,-10678,60,66,-89
32767,32682,644,-14,-35,-51,22482,23578,-2532,53,-25,-115,8834,622,-10752,52,69,-98
32767,32510,478,-47,-16,-41,22604,23608,-2534,70,-38,-118,8894,574,-10772,54,68,-96
32767,32252,464,-54,-25,-49,22590,23676,-2604,69,-43,-109,8878,560,-10770,62,69,-94
32767,32044,482,-51,-19,-39,22524,23632,-2610,61,-27,-108,8806,658,-10772,70,70,-105
32767,31922,470,-27,8,-35,22528,23622,-2612,37,-35,-107,8772,766,-10662,68,59,-108
32767,32340,488,-19,0,-33,22454,23596,-2572,22,-29,-112,8884,636,-10712,66,41,-103
32767,32464,490,-62,-12,-31,22376,23494,-2598,21,-25,-116,8900,610,-10834,77,41,-103
32767,32166,578,-108,-14,-27,22348,23412,-2566,2,-35,-110,8932,564,-10874,94,53,-106
32767,32050,480,-77,-9,-26,22492,23418,-2572,10,-31,-110,8926,648,-10906,100,64,-101
32767,31998,512,-46,1,-25,22448,23362,-2628,19,-20,-103,9000,658,-10854,100,64,-97
32767,32382,592,-33,8,-31,22500,23272,-2506,24,-33,-110,9048,592,-10784,86,61,-96
32767,32268,682,-47,-2,-40,22390,23376,-2728,56,-18,-117,8982,562,-10790,76,62,-101
32767,32392,506,-48,-1,-47,22154,23412,-2728,71,-33,-101,8986,542,-10894,77,65,-96
32767,32424,464,-39,-9,-38,22276,23478,-2654,40,-47,-132,9010,570,-10964,81,67,-90
32767,32262,432,-59,-1,-51,22392,23494,-2896,20,-39,-135,8926,438,-10898,73,78,-91
32767,32350,600,-39,-14,-37,22276,23216,-2954,43,-18,-100,8910,370,-10750,59,77,-107
32767,32136,616,-52,12,-58,22354,23164,-2908,75,-14,-121,8956,278,-10746,40,64,-105
32767,32146,472,-29,14,-68,22456,23316,-2926,63,-11,-123,9040,206,-10752,46,47,-103
32767,32376,390,-29,-9,-48,22332,23382,-2912,60,15,-127,9044,98,-10686,64,47,-109
32767,31986,438,-78,-3,-56,22238,23324,-2904,75,3,-127,8926,36,-10822,85,52,-115
32767,31922,502,-71,-5,-46,22198,23284,-2878,70,-7,-138,8936,94,-10826,93,46,-125
32767,31886,484,-55,12,-44,22292,23258,-2866,77,-15,-132,9034,170,-10746,99,34,-134
32767,32032,516,-59,21,-63,22154,23248,-2860,90,-26,-138,9054,244,-10826,106,37,-130
32767,32304,272,-59,8,-39,21998,23336,-2762,100,-27,-147,9150,196,-10842,101,39,-128
32767,31988,266,-104,23,-55,22158,23316,-2804,89,-60,-135,9200,138,-10864,92,45,-132
32767,31956,246,-89,15,-71,22300,23302,-2942,77,-55,-124,9178,174,-10876,68,56,-139
32767,31928,384,-63,32,-58,22110,23056,-2864,73,-47,-129,9144,146,-10882,50,64,-138
32767,32106,380,-26,23,-46,22174,23042,-2744,66,-63,-152,9124,72,-10856,39,67,-135
32767,32344,388,-52,22,-66,22086,23034,-2946,82,-45,-151,9072,0,-10822,49,58,-136
32767,32196,216,-73,18,-69,22008,22822,-2720,74,-52,-141,9244,-22,-10940,61,59,-125
32767,32014,332,-74,8,-70,22164,22840,-2884,58,-63,-167,9228,-60,-10858,55,62,-118
32767,32228,186,-57,6,-78,22176,22856,-2762,82,-41,-169,9156,-82,-10816,70,56,-110
32767,32174,618,-64,29,-85,22036,22816,-2766,82,-55,-157,9208,-98,-10816,80,44,-107
32767,32396,336,-29,-4,-66,22028,22934,-2906,82,-60,-183,9332,-116,-10876,85,44,-99
32767,32136,456,-64,7,-67,22126,22966,-2674,76,-57,-171,9254,-122,-10960,96,55,-94
32767,32014,460,-70,3,-91,22248,22842,-2862,62,-46,-156,9246,-122,-10930,95,63,-93
32767,32004,410,-39,5,-85,22308,22754,-2522,-5,-45,-180,9224,-124,-10824,91,64,-86
32767,31950,322,3,14,-73,22320,22834,-2750,-33,-27,-198,9268,-198,-10796,86,64,-83
32767,32224,236,22,-1,-66,22082,22728,-2762,-18,7,-158,9272,-258,-10744,87,56,-81
32767,32226,320,-18,16,-93,22156,22788,-2674,5,-16,-139,9172,-276,-10808,98,51,-80
32767,32072,264,-14,-11,-80,22264,23034,-2988,46,-6,-134,9244,-272,-10784,87,46,-79
32767,32110,208,-38,3,-95,21940,23110,-2744,52,-14,-142,9324,-286,-10776,72,42,-75
32767,32192,170,-33,-13,-89,21912,23094,-3016,32,-46,-159,9314,-364,-10840,65,54,-77
32767,31876,264,-59,3,-97,22110,22986,-3036,8,-64,-153,9218,-354,-10750,55,53,-82
32767,32108,224,-30,-1,-84,22380,22798,-3118,-12,-69,-143,9176,-316,-10792,51,44,-72
32767,31988,312,-46,-3,-98,22254,22664,-2956,-8,-50,-151,9256,-362,-10826,58,37,-64
32767,31872,356,-58,-11,-91,22032,22604,-3164,48,-53,-145,9212,-390,-10906,66,48,-73
32767,31788,190,-33,-4,-41,21802,22470,-3082,80,-61,-140,9448,-584,-10876,60,54,-72
32767,31688,160,-19,-8,-72,22074,22690,-3068,100,-97,-165,9430,-702,-10792,55,61,-80
32767,31864,84,-36,-15,-130,22140,22768,-3172,109,-77,-131,9270,-666,-10780,58,69,-89
32767,31828,32,-35,-8,-97,22210,22676,-2996,105,-85,-111,9172,-682,-10780,84,52,-76
32767,31668,158,-32,9,-109,22280,22648,-3062,63,-83,-142,9330,-620,-10912,113,29,-66
32767,31834,170,-6,-9,-88,22210,22742,-3116,34,-52,-160,9542,-536,-10852,118,38,-72
32767,31758,-126,-44,-23,-119,22022,22588,-3102,37,-23,-114,9560,-512,-10976,97,70,-80
32767,31838,-26,-32,-39,-119,22264,22410,-3016,48,-39,-92,9382,-566,-10830,89,85,-85
32767,31810,-142,-32,-42,-106,22178,22546,-3030,79,-27,-128,9386,-628,-10832,101,79,-73
32767,31478,-92,-33,-63,-100,21732,22674,-2976,74,-16,-136,9442,-572,-10888,112,77,-69
32767,31694,-94,-11,-63,-90,21800,22836,-3008,62,-39,-104,9388,-680,-10944,110,91,-66
32767,31266,128,6,-34,-134,22118,22722,-2942,21,-53,-81,9300,-662,-10872,109,93,-67
32767,32010,176,66,-60,-77,21954,22612,-2822,5,-62,-100,9456,-772,-10844,99,88,-69
32767,31624,326,0,-14,-143,21698,22554,-2954,37,-69,-103,9364,-794,-10756,97,87,-66
32767,31902,262,16,-31,-125,21808,22330,-2890,60,-106,-80,9274,-790,-10784,116,85,-66
32767,31718,196,27,-15,-114,21972,22150,-2888,69,-112,-91,9282,-700,-10702,135,76,-60
32767,31562,118,15,-9,-136,21878,22006,-3082,92,-100,-108,9400,-766,-10780,139,70,-58
32767,31684,432,-11,-5,-141,21790,22124,-2894,90,-111,-119,9482,-820,-10728,124,75,-74
32767,31614,128,9,-7,-139,21978,22262,-3104,129,-112,-91,9496,-932,-10628,117,70,-77
32767,31016,-4,14,-12,-141,21964,21992,-2848,96,-109,-100,9418,-954,-10666,120,67,-80
32767,31404,168,30,-1,-139,21772,22014,-2822,81,-110,-156,9406,-890,-10720,122,64,-76
32767,31412,126,15,18,-154,21708,22154,-2810,74,-107,-169,9394,-932,-10702,139,55,-67
32767,31194,62,13,-28,-141,21872,22144,-2796,74,-99,-128,9462,-944,-10596,145,45,-75
32767,31118,272,25,-14,-82,22016,21982,-2812,89,-108,-115,9474,-910,-10600,129,40,-84
32767,31320,476,-2,-3,-175,21692,22116,-2552,104,-94,-159,9450,-790,-10448,113,18,-88
32767,31422,26,6,6,-198,21774,22076,-2816,96,-109,-129,9412,-712,-10482,80,1,-81
32767,31010,324,22,-16,-194,21998,22156,-2748,72,-118,-117,9386,-748,-10516,58,-12,-79
32767,31556,156,12,-10,-171,22000,22102,-2790,48,-98,-131,9404,-756,-10492,47,-30,-75
32767,31462,482,-21,-17,-156,22000,22174,-2548,24,-94,-161,9484,-696,-10698,44,-33,-68
32767,31684,210,-73,-53,-87,21952,22098,-3020,60,-94,-128,9712,-738,-10870,28,-9,-59
32767,31604,168,-103,-59,-72,21972,22032,-2804,43,-106,-171,9792,-888,-10832,18,26,-53
32767,31106,260,-66,-42,-111,22086,22206,-2700,46,-96,-134,9692,-1042,-10632,11,43,-60
32767,31418,432,-54,-15,-152,21924,22074,-2680,49,-88,-111,9698,-1116,-10542,17,41,-62
32767,31222,234,-13,-1,-161,21938,21980,-2692,35,-97,-149,9622,-1114,-10624,60,25,-43
32767,31518,54,10,-16,-149,21994,22244,-2834,53,-106,-133,9584,-1146,-10850,103,22,-23
32767,31548,136,-25,-14,-152,21898,21922,-2606,35,-98,-122,9614,-1130,-10862,135,28,-18
32767,31510,-90,-11,-47,-120,22078,21866,-2548,24,-108,-175,9780,-1146,-10672,128,39,-22
32767,30742,178,-48,-32,-189,22050,21776,-2694,2,-88,-143,9874,-1122,-10624,105,53,-29
32767,31498,304,19,-37,-165,21776,21490,-2530,-16,-71,-159,9696,-1018,-10576,107,64,-22
32767,31174,-18,36,-37,-130,21962,21760,-2540,19,-93,-173,9460,-928,-10370,134,56,2
32767,31294,158,1,-47,-162,21770,21846,-2586,54,-82,-137,9524,-826,-10364,127,35,8
32767,31202,22,-25,-55,-236,21294,21712,-2672,53,-75,-143,9666,-804,-10494,70,29,-6
32767,31562,-18,8,-86,-152,21906,22700,-2708,53,-78,-106,9744,-888,-10626,58,33,3
32767,31482,46,-49,-114,-141,22858,23218,-2914,42,-38,96,9782,-878,-10790,63,51,21
32767,31154,22,-71,-127,-145,21516,22354,-2932,-63,24,67,9722,-918,-10724,41,84,23
32767,31148,-58,-31,-144,-143,21052,22242,-3100,-129,-42,-90,9584,-1036,-10440,-9,97,15
32767,30918,136,-31,-142,-163,21952,22046,-3102,-153,-91,-27,9560,-1184,-10424,-14,73,16
32767,31504,292,-45,-148,-164,22496,21412,-2994,-146,-62,38,9616,-1318,-10616,33,52,31
32767,31250,654,-60,-146,-167,22166,21234,-3124,-96,-23,-20,9634,-1210,-10702,87,61,43
32767,31512,596,-48,-154,-87,21870,21486,-3194,-21,-33,-23,9538,-1012,-10662,106,79,52
32767,30836,710,-80,-129,-103,21922,21536,-3028,34,-41,17,9492,-962,-10526,90,75,51
32767,30452,698,-37,-114,-126,21962,21650,-2924,68,-22,-7,9576,-1026,-10576,81,66,39
32767,30510,504,35,-87,-139,22036,22014,-2870,110,-30,-9,9680,-1142,-10404,88,67,43
32767,30362,392,74,-72,-154,21966,22208,-2812,101,-30,11,9646,-1150,-10342,93,65,47
32767,31158,456,89,-78,-175,21644,22268,-2840,83,-36,13,9622,-1118,-10512,105,59,58
32767,30660,180,26,-80,-136,21570,22224,-2780,46,-70,-9,9404,-1074,-10504,119,67,61
32767,30754,550,30,-100,-203,21866,22028,-2636,-11,-90,-29,9282,-906,-10294,105,64,45
32767,30254,374,31,-85,-234,22218,21736,-2606,-51,-68,-18,9400,-914,-10228,73,45,30
32767,30628,364,79,-96,-152,22058,21450,-2762,-65,-35,-18,9480,-1048,-10378,68,22,36
32767,30850,710,48,-82,-177,21754,21392,-2794,-25,-33,-21,9484,-1180,-10398,96,25,42
32767,30202,206,22,-91,-155,21780,21542,-2828,29,-39,-14,9502,-970,-10390,87,22,30
32767,30822,782,60,-79,-119,21846,21718,-2728,51,-42,-9,9474,-950,-10240,56,19,24
32767,30144,582,31,-67,-171,21866,21850,-2700,47,-20,-4,9416,-934,-10240,46,7,24
32767,31456,470,83,-63,-102,21850,21852,-2752,43,-22,22,9472,-918,-10324,66,-5,31
32767,30762,746,39,-61,-136,21986,21926,-2812,58,-47,32,9462,-780,-10394,74,-8,29
32767,31986,672,-25,-53,-213,21758,22176,-2810,65,-53,12,9460,-814,-10426,72,-3,36
32767,29842,554,-96,-62,-302,21588,22274,-2520,40,-63,1,9564,-916,-10258,43,3,28
32767,29770,576,-3,-96,-103,21806,21972,-2800,-17,-73,-1,9558,-880,-10350,24,2,19
32767,30716,822,11,-54,-118,22010,21716,-3108,11,-60,16,9524,-792,-10232,37,4,25
32767,30962,128,22,-61,-146,22032,21652,-3152,16,-31,1,9442,-788,-10196,57,1,32
32767,30754,582,-3,-62,-178,22254,21762,-3350,13,-11,-15,9422,-686,-10376,57,-10,31
32767,30394,528,-12,-75,-136,22174,21836,-2914,17,3,-48,9540,-730,-10290,45,-9,35
