elbow_0
Module: 78:21:84:DF:61:54 (01)
t(us),ax,ay,az,gx,gy,gz,y,p,r
0,4986,32767,4000,37,-64,-8,0.000099,0.002074,0.021851
15627,5068,32767,3946,34,-59,-8,-0.000020,0.011090,0.069481
31252,5064,32767,3958,35,-54,-3,-0.000111,0.014005,0.085366
46879,4914,32767,3946,31,-55,-5,-0.000552,0.019829,0.116791
62505,5014,32767,3978,7,-55,-7,-0.001049,0.025626,0.147774
78131,4978,32767,3936,-12,-54,-11,-0.001232,0.028383,0.163097
93757,4934,32767,4036,0,-51,-6,-0.001847,0.034004,0.193040
109383,4976,32767,4062,16,-52,-5,-0.002274,0.036748,0.208039
125009,4978,32767,4078,17,-51,-6,-0.003134,0.042195,0.238075
140636,4940,32767,4058,14,-51,-3,-0.003666,0.044791,0.252868
156262,4964,32767,3950,10,-56,-7,-0.004746,0.050062,0.282411
171888,4924,32767,4012,20,-54,-6,-0.005271,0.052609,0.297008
187514,5004,32767,3992,42,-57,0,-0.006561,0.057695,0.326183
203141,5042,32767,3918,38,-56,0,-0.008006,0.062727,0.355418
218767,5024,32767,3958,25,-50,-5,-0.008816,0.065119,0.369769
234393,5024,32767,3908,19,-52,-2,-0.010312,0.069941,0.398040
250020,4906,32767,3978,13,-54,-7,-0.011880,0.074478,0.425681
265646,4956,32767,3970,15,-56,-9,-0.012718,0.076784,0.439271
281273,4952,32767,3934,27,-54,-4,-0.013563,0.078965,0.452798
296899,4972,32767,3972,24,-53,-6,-0.015222,0.083246,0.479755
312525,4984,32767,4046,17,-54,-7,-0.016124,0.085263,0.493087
328151,4966,32767,4096,11,-58,-4,-0.017901,0.089344,0.519181
343777,4988,32767,4030,8,-60,-7,-0.019648,0.093348,0.544535
359402,4974,32767,3952,29,-60,-5,-0.020547,0.095270,0.557133
375029,4996,32767,3892,41,-57,-1,-0.022541,0.099098,0.582259
390655,4910,32767,3874,37,-50,-4,-0.024720,0.102786,0.607232
406282,4924,32767,3948,20,-51,-7,-0.025652,0.104402,0.619297
421908,4934,32767,3986,2,-57,-9,-0.026607,0.106009,0.631287
437535,4976,32767,3982,-13,-61,-5,-0.028412,0.109153,0.654279
453161,5020,32767,4002,-22,-58,-9,-0.030426,0.112416,0.676517
468788,4902,32767,3984,-1,-58,-4,-0.031311,0.113932,0.687336
484415,4970,32767,4020,26,-58,-3,-0.033353,0.116877,0.709285
500041,4976,32767,3966,41,-50,-5,-0.034389,0.118270,0.720305
515668,5004,32767,4028,58,-56,2,-0.036587,0.120943,0.742276
531293,4984,32767,3966,35,-62,-3,-0.037788,0.122344,0.753118
546920,5002,32767,3922,13,-62,-9,-0.039811,0.124876,0.774097
562546,4960,32767,3920,7,-60,-8,-0.040851,0.126094,0.784175
578171,4970,32767,3926,8,-53,-9,-0.042845,0.128472,0.803828
593798,4978,32767,3988,0,-47,-13,-0.044671,0.130532,0.823147
609425,4912,32767,4040,-1,-53,-10,-0.045646,0.131494,0.832436
625050,4980,32767,4016,1,-62,-10,-0.047448,0.133401,0.850817
640677,5016,32767,4026,3,-59,-10,-0.048320,0.134285,0.859733
656303,5004,32767,3946,7,-57,-10,-0.050164,0.136146,0.877461
671929,4976,32767,3950,18,-51,-8,-0.051073,0.137007,0.886214
687555,4912,32767,4008,33,-54,-5,-0.052909,0.138522,0.903542
703182,4966,32767,3934,17,-61,-10,-0.053914,0.139297,0.912232
718809,5002,32767,3906,2,-63,-14,-0.055724,0.140836,0.928925
734436,4998,32767,3972,-2,-55,-16,-0.057339,0.142195,0.944797
750062,4896,32767,4006,14,-52,-13,-0.058152,0.142789,0.952560
765688,4952,32767,4000,18,-51,-8,-0.059813,0.143953,0.968038
781315,4892,32767,4002,13,-51,-7,-0.061529,0.145044,0.983125
796942,4886,32767,4098,2,-58,-8,-0.062291,0.145504,0.990393
812568,4936,32767,4090,0,-60,-8,-0.063002,0.146022,0.997462
828194,4996,32767,4090,13,-61,-9,-0.064643,0.147147,1.011428
843820,4986,32767,3978,31,-58,-6,-0.066248,0.148132,1.025281
859447,4988,32767,3898,37,-55,-2,-0.067039,0.148558,1.032234
875072,4942,32767,3926,38,-53,-5,-0.068848,0.149512,1.046029
890698,4934,32767,3948,20,-57,-7,-0.069757,0.149990,1.052769
906324,4902,32767,4046,2,-56,-5,-0.071228,0.150740,1.065365
921950,4876,32767,4018,7,-56,-4,-0.071920,0.151056,1.071490
937575,4948,32767,4020,9,-58,-1,-0.073307,0.151708,1.083320
953202,4996,32767,3954,11,-60,0,-0.074177,0.152189,1.089245
968829,4960,32767,4088,28,-60,1,-0.075633,0.152914,1.100818
984455,5004,32767,4042,54,-66,3,-0.077334,0.153750,1.112349
1000081,5080,32767,4022,69,-67,3,-0.078141,0.154128,1.118347
1015708,5112,32767,3832,64,-58,-3,-0.079978,0.155000,1.130235
1031334,5022,32767,3852,52,-50,-3,-0.080818,0.155325,1.136050
1046961,4990,32767,3828,36,-52,-2,-0.082347,0.155806,1.147074
1062588,4968,32767,3870,20,-56,-6,-0.083085,0.156051,1.152331
1078214,4968,32767,3898,0,-56,-13,-0.084246,0.156343,1.162193
1093840,4866,32767,4022,-19,-53,-10,-0.085262,0.156576,1.171156
1109466,4886,32767,4054,-33,-62,-17,-0.085668,0.156648,1.175386
1125093,5032,32767,4048,-28,-65,-14,-0.086301,0.156724,1.183371
1140718,5028,32767,3924,0,-57,-9,-0.086741,0.156888,1.187375
1156344,4914,32767,3990,34,-53,-7,-0.087664,0.157037,1.195867
1171970,4864,32767,4044,55,-57,-2,-0.088801,0.157156,1.204956
1187596,4962,32767,4042,47,-61,-5,-0.089357,0.157230,1.209458
1203222,4994,32767,3900,34,-63,-4,-0.089994,0.157379,1.213786
1218848,4978,32767,3928,26,-58,-1,-0.091098,0.157659,1.222020
1234474,4992,32767,3998,8,-63,-6,-0.092220,0.157930,1.229867
1250100,5052,32767,3950,-3,-61,-9,-0.092699,0.158048,1.233485
1265726,5058,32767,3868,9,-54,-8,-0.093491,0.158131,1.240510
1281353,5020,32767,3930,3,-47,-9,-0.093956,0.158235,1.244057
1296978,4920,32767,4030,10,-48,-8,-0.094775,0.158267,1.250707
1312604,4894,32767,4040,14,-57,-5,-0.095101,0.158193,1.254026
1328231,5060,32767,3908,10,-69,-7,-0.095902,0.158230,1.260693
1343856,5064,32767,3944,20,-61,-6,-0.096355,0.158353,1.263870
1359483,4966,32767,3946,26,-49,-4,-0.097340,0.158567,1.270353
1375109,4902,32767,3940,20,-50,-8,-0.098092,0.158476,1.276720
1390736,4940,32767,3968,15,-59,-6,-0.098385,0.158402,1.279695
1406362,5022,32767,3956,4,-61,-5,-0.099146,0.158470,1.285552
1421988,5058,32767,3972,5,-59,-6,-0.099494,0.158513,1.288272
1437614,5046,32767,3940,1,-54,-6,-0.100218,0.158606,1.293689
1453239,4942,32767,3960,8,-52,-7,-0.100498,0.158560,1.296296
1468866,4924,32767,4018,21,-56,-8,-0.101136,0.158533,1.301435
1484491,5008,32767,3966,17,-55,-7,-0.101605,0.158348,1.306649
1500117,4974,32767,3918,15,-53,-5,-0.101990,0.158364,1.309256
1515750,5006,32767,3962,7,-56,-4,-0.102618,0.158364,1.314216
1531375,5052,32767,3930,12,-58,-4,-0.102861,0.158329,1.316479
1547001,5052,32767,3846,17,-58,-6,-0.103573,0.158405,1.321267
1562628,5046,32767,3922,25,-53,-8,-0.104116,0.158319,1.325943
1578254,4992,32767,3924,23,-49,-9,-0.104412,0.158237,1.328361
1593880,4938,32767,4004,16,-49,-9,-0.104785,0.158264,1.330700
1609507,4898,32767,4010,-10,-55,-9,-0.105115,0.158019,1.334827
1625133,5000,32767,3960,-26,-62,-9,-0.105354,0.157850,1.338357
1640759,5016,32767,4074,-15,-64,-10,-0.105364,0.157702,1.339894
1656386,5052,32767,4026,21,-59,-4,-0.105762,0.157728,1.343360
1672013,5080,32767,4000,38,-53,-6,-0.106096,0.157773,1.345353
1687639,4966,32767,3928,43,-48,-6,-0.106641,0.157655,1.349668
1703265,4916,32767,3948,40,-50,-3,-0.107023,0.157661,1.351818
1718891,4946,32767,3982,21,-59,-6,-0.107550,0.157565,1.355865
1734517,5046,32767,3962,-3,-62,-11,-0.107691,0.157463,1.357574
1750144,5028,32767,3938,0,-54,-8,-0.107906,0.157290,1.360757
1765770,4952,32767,4000,11,-50,-9,-0.108223,0.157221,1.363751
1781397,4890,32767,4086,13,-57,-10,-0.108363,0.157097,1.365366
1797023,5000,32767,4050,11,-65,-6,-0.108510,0.156850,1.368342
1812649,5004,32767,3942,15,-63,-5,-0.108914,0.156862,1.371353
1828276,4982,32767,3888,32,-57,-6,-0.109038,0.156748,1.372982
1843902,4966,32767,4030,41,-56,-5,-0.109364,0.156801,1.374709
1859529,4974,32767,4020,27,-54,-11,-0.109767,0.156658,1.378032
1875154,4956,32767,3960,5,-55,-7,-0.109895,0.156396,1.380740
1890780,5024,32767,3950,8,-56,-7,-0.110097,0.156404,1.382010
1906405,4978,32767,3962,13,-56,-9,-0.110309,0.156245,1.384642
1922031,4964,32767,3958,11,-57,-9,-0.110390,0.156174,1.385831
1937658,4932,32767,3904,14,-51,-7,-0.110607,0.156026,1.388368
1953284,4924,32767,3978,12,-51,-8,-0.110818,0.155862,1.390811
1968911,4866,32767,4050,8,-59,-8,-0.110825,0.155711,1.391890
1984537,4878,32767,4014,2,-63,-7,-0.110884,0.155654,1.392906
2000163,5008,32767,3962,0,-62,-11,-0.110839,0.155395,1.394922
2015789,5012,32767,4022,32,-63,-2,-0.110989,0.155290,1.396940
2031415,5022,32767,3968,33,-63,-4,-0.111104,0.155207,1.398208
2047040,5006,32767,3928,24,-60,-6,-0.111485,0.155211,1.400684
2062666,5016,32767,3918,26,-58,-3,-0.111751,0.155315,1.401800
2078292,5004,32767,3974,16,-53,-7,-0.112057,0.155239,1.404166
2093917,4966,32767,3968,-11,-55,-17,-0.112124,0.155191,1.405088
2109543,4878,32767,4130,-24,-50,-20,-0.111951,0.154886,1.406459
2125168,4952,32767,4130,-33,-59,-36,-0.111684,0.154617,1.406919
2140794,4928,32767,4048,-22,-71,-23,-0.110892,0.153872,1.407725
2156420,4878,32767,4066,-11,-71,-16,-0.110557,0.153537,1.408761
2172046,5002,32767,3994,-7,-70,-18,-0.110409,0.153363,1.409413
2187672,5054,32767,3844,17,-60,-15,-0.110306,0.153155,1.410813
2203299,4980,32767,3916,50,-49,-8,-0.110520,0.152972,1.413079
2218925,4930,32767,4016,68,-49,-6,-0.110742,0.152953,1.414348
2234551,4928,32767,4036,43,-60,-5,-0.110912,0.152822,1.415771
2250177,4966,32767,3970,-8,-57,-14,-0.111156,0.152783,1.417617
2265802,4902,32767,4044,-18,-59,-11,-0.110995,0.152616,1.418485
2281429,4958,32767,4070,-14,-61,-18,-0.110841,0.152446,1.418948
2297056,4922,32767,4090,0,-73,-17,-0.110585,0.152197,1.419812
2312682,4942,32767,4010,21,-75,-6,-0.110512,0.152116,1.420293
2328307,5016,32767,3974,29,-70,-9,-0.110625,0.152040,1.421885
2343933,4992,32767,3932,44,-65,-9,-0.110785,0.152066,1.422824
2359560,5004,32767,3918,52,-58,-8,-0.111067,0.151994,1.424841
2375186,5008,32767,3974,49,-53,-6,-0.111271,0.152004,1.425846
2390811,4920,32767,3980,27,-56,-8,-0.111571,0.151916,1.427849
2406437,4842,32767,4008,-1,-61,-9,-0.111667,0.151834,1.429158
2422063,4852,32767,4102,-4,-62,-10,-0.111693,0.151828,1.429642
2437690,4926,32767,4016,4,-62,-17,-0.111434,0.151579,1.430317
2453317,4934,32767,4120,28,-61,-9,-0.111285,0.151401,1.430778
2468944,4884,32767,4154,47,-71,-3,-0.111398,0.151320,1.432182
2484570,4894,32767,4034,34,-83,-7,-0.111565,0.151356,1.433030
2500196,4950,32767,4132,20,-98,2,-0.111652,0.151311,1.434372
2515822,4936,32767,4154,21,-106,3,-0.111831,0.151491,1.434909
2531447,4862,32767,4142,40,-112,10,-0.112028,0.151683,1.436055
2547072,4772,32767,4262,76,-129,17,-0.112571,0.152082,1.437671
2562699,4866,32767,4232,73,-142,27,-0.113004,0.152367,1.438763
2578324,4990,32767,4088,83,-152,38,-0.114008,0.153170,1.440836
2593950,5104,32767,4056,82,-159,36,-0.115513,0.154348,1.443324
2609576,5122,32767,4006,96,-160,33,-0.116245,0.154894,1.444656
2625202,5176,32767,4002,63,-157,17,-0.116867,0.155353,1.445889
2640829,5136,32767,3836,63,-157,32,-0.117961,0.156252,1.447915
2656455,4974,32767,4044,57,-202,35,-0.119226,0.157343,1.449896
2672082,4884,32767,4568,-42,-199,16,-0.119644,0.157823,1.450551
2687709,4856,32767,4518,0,-249,64,-0.119674,0.158548,1.450171
2703335,5124,32767,4022,34,-276,72,-0.120282,0.159395,1.450478
2718961,5224,32767,4060,13,-277,79,-0.121927,0.161344,1.451791
2734587,4992,32767,4496,21,-324,91,-0.122902,0.162516,1.452363
2750214,5016,32767,4530,20,-350,114,-0.124803,0.164930,1.453401
2765841,5178,32767,4676,-28,-402,127,-0.125908,0.166340,1.453897
2781467,5180,32767,4658,-35,-451,154,-0.128261,0.169759,1.453920
2797094,5220,32767,4684,-36,-499,171,-0.131071,0.173776,1.453981
2812720,5336,32767,4594,3,-547,186,-0.132561,0.175872,1.454218
2828346,5454,32767,4774,-15,-590,200,-0.136429,0.180680,1.455590
2843973,5614,32767,5138,-67,-676,199,-0.139868,0.185764,1.455813
2859600,5510,32767,5136,-77,-657,219,-0.141689,0.188502,1.455723
2875226,5642,32767,4930,-88,-750,216,-0.143552,0.191360,1.455506
2890852,6036,32767,4578,-54,-792,240,-0.147133,0.196944,1.455718
2906478,6362,32767,4510,-25,-823,250,-0.152303,0.203680,1.457238
2922104,6392,32767,4488,18,-825,258,-0.155116,0.207112,1.458383
2937730,6486,32767,4564,44,-847,257,-0.161203,0.213852,1.461706
2953356,6730,32767,4418,37,-867,269,-0.164423,0.217299,1.463598
2968982,7048,32767,4368,17,-877,264,-0.170983,0.224252,1.467338
2984608,7280,32767,4200,28,-871,261,-0.174247,0.227743,1.469087
3000234,7386,32767,4292,58,-876,260,-0.181137,0.234691,1.473142
3015859,7512,32767,4266,91,-880,261,-0.184791,0.238108,1.475513
3031485,7804,32767,4194,98,-875,255,-0.192315,0.244792,1.480697
3047110,8168,32767,4142,63,-870,236,-0.199756,0.251190,1.485847
3062737,8276,32767,4224,47,-859,243,-0.203386,0.254400,1.488166
3078364,8296,32767,4302,30,-865,250,-0.210195,0.260605,1.492158
3093989,8340,32767,4260,57,-872,262,-0.213761,0.263793,1.494195
3109616,8476,32767,4216,86,-881,260,-0.221228,0.270133,1.498634
3125243,8830,32767,4070,82,-903,241,-0.225206,0.273231,1.501205
3140869,9148,32767,4090,64,-907,240,-0.232912,0.279090,1.506329
3156495,9222,32767,4344,65,-902,248,-0.236783,0.282029,1.508824
3172120,9250,32767,4374,44,-914,264,-0.244615,0.288149,1.513313
3187750,9224,32767,4350,47,-924,270,-0.252417,0.294281,1.517499
3203375,9402,32767,4094,64,-959,258,-0.256299,0.297245,1.519640
3219002,9836,32767,3870,44,-976,242,-0.264671,0.303055,1.524633
3234628,10152,32767,3812,21,-974,237,-0.268688,0.305769,1.527070
3250254,10170,32767,4114,57,-968,255,-0.277029,0.311399,1.531802
3265881,10248,32767,4122,101,-987,273,-0.281658,0.314415,1.534331
3281507,10396,32767,3964,112,-998,287,-0.292084,0.320478,1.540337
3297133,10666,32767,3782,134,-1030,294,-0.303755,0.326824,1.546986
3312759,10960,32767,3666,91,-1045,284,-0.309962,0.329882,1.550632
3328385,11120,32767,3650,46,-1060,281,-0.321701,0.335937,1.556935
3344012,11278,32767,3654,19,-1069,293,-0.327214,0.338898,1.559668
3359638,11406,32767,3614,-3,-1076,304,-0.338393,0.345081,1.564659
3375264,11488,32767,3664,2,-1081,314,-0.343954,0.348139,1.567019
3390890,11722,32767,3202,30,-1092,311,-0.356077,2.787104,1.572119
3406516,12086,32767,3010,23,-1110,298,-0.362561,2.784095,1.575021
3422142,12388,32767,3082,35,-1110,299,-0.376433,2.778199,1.581216
3437768,12590,32767,3220,41,-1124,322,-0.391185,2.772174,1.587485
3453394,12634,32767,3110,57,-1134,340,-0.399206,2.769038,1.590786
3469020,12852,32767,2870,69,-1144,370,-0.416496,2.762447,1.597573
3484647,13180,32767,2664,59,-1151,377,-0.426208,2.758927,1.601314
3500274,13476,32767,2508,9,-1156,359,-0.446007,2.751918,1.608497
3515901,13574,32767,2402,-17,-1155,353,-0.455548,2.748569,1.611658
3531528,13538,32767,2476,-40,-1151,368,-0.474832,2.742165,1.617675
3547155,13698,32767,2524,-66,-1164,397,-0.484675,2.738873,1.620467
3562781,13994,32767,2474,-61,-1179,407,-0.504811,2.732002,1.625523
3578406,14326,32767,2204,-70,-1185,393,-0.526964,2.725081,1.630966
3594032,14560,32767,2102,-105,-1186,374,-0.538517,2.721831,1.633677
3609658,14514,32767,2156,-139,-1194,370,-0.561437,2.715648,1.638499
3625285,14574,32767,2128,-139,-1217,374,-0.573112,2.712680,1.640634
3640910,14726,32767,1932,-113,-1248,367,-0.598601,2.707011,1.645275
3656535,14888,32767,1706,-72,-1266,353,-0.613554,2.704257,1.648197
3672162,15172,32767,1462,-36,-1301,336,-0.648551,2.699392,1.655300
3687789,15850,32767,1198,-59,-1318,288,-0.689675,2.695368,1.663380
3703415,16272,32767,1196,-23,-1308,292,-0.712083,2.693470,1.667354
3719040,16416,32767,1114,-18,-1282,319,-0.762907,2.689494,1.675907
3734666,16428,32767,658,-64,-1246,320,-0.790178,2.687300,1.679994
3750292,16396,32767,224,-83,-1226,282,-0.846886,2.683238,1.687179
3765918,16610,32767,-182,-72,-1226,248,-0.877510,2.681713,1.690726
3781545,16900,32767,-282,-61,-1204,229,-0.946116,2.679391,1.698133
3797171,17082,32767,-268,-52,-1178,218,-0.983428,2.678416,1.701955
3812798,17080,32767,-528,-52,-1106,230,-1.063603,2.676350,1.709080
3828424,17074,32767,-772,-51,-1066,209,-1.149816,2.674260,1.715653
3844049,17166,32767,-884,-22,-1048,179,-1.194906,2.673425,1.718806
3859675,17362,32767,-958,7,-1047,171,-1.292750,2.672464,1.725676
3875300,17542,32767,-862,6,-1039,173,-1.344582,2.672031,1.729173
3890927,17650,32767,-842,-7,-1027,173,-1.454113,2.671086,1.735907
3906554,17840,32767,-1134,-30,-999,173,-1.511488,2.670649,1.739091
3922181,17880,32767,-1388,-48,-955,188,-1.625117,2.669515,1.744475
3937807,17910,32767,-1650,-73,-916,188,-1.738225,2.667971,1.748908
3953434,17926,32767,-1586,-88,-913,157,-1.793818,2.667317,1.750988
3969060,18184,32767,-1648,-97,-934,149,-1.908890,2.666556,1.754640
3984686,18346,32767,-1766,-129,-914,147,-1.966789,2.666207,1.756421
4000313,17888,32767,-1880,-153,-847,144,-2.079701,2.665418,1.758857
4015939,17764,32767,-1972,-151,-803,129,-2.131930,2.665125,1.759544
4031565,18346,32767,-2008,-67,-851,123,-2.229990,2.664843,1.761149
4047191,18884,32767,-2230,-36,-861,134,-2.276558,2.664688,1.763134
4062817,19004,32767,-2360,-80,-800,133,-2.362040,2.663773,1.767130
4078444,18680,32767,-2170,-22,-747,132,-2.436965,2.662608,1.769942
4094070,18402,32767,-1980,-18,-775,159,-2.469622,2.661964,1.771675
4109696,18558,32767,-2320,-93,-777,170,-2.534653,2.660632,1.774870
4125321,18610,32767,-2796,-143,-742,152,-2.567850,2.659897,1.775757
4140947,18556,32767,-2928,-138,-701,126,-2.631031,2.658731,1.776648
4156573,18360,32767,-2682,-80,-715,108,-2.658713,2.658358,1.777277
4172199,18408,32767,-2442,-2,-778,101,-2.706584,2.658288,1.779706
4187825,18848,32767,-2616,26,-825,110,-2.727426,2.658493,1.781843
4203451,19200,32767,-2994,-60,-794,152,-2.767465,2.658422,1.786715
4219077,19094,32767,-3394,-153,-732,143,-2.810054,2.657061,1.789480
4234704,18796,32767,-3582,-216,-697,98,-2.831646,2.656554,1.789858
4250330,18632,32767,-3780,-222,-684,50,-2.874642,2.656524,1.789082
4265956,18830,32767,-3752,-170,-698,19,-2.893856,2.657161,1.788716
4281582,19304,32767,-3806,-90,-710,23,-2.925847,2.658621,1.789484
4297209,19488,32767,-3972,-60,-668,33,-2.950497,2.659481,1.791943
4312835,19504,32767,-4088,-54,-592,20,-2.961205,2.659700,1.793015
4328461,19564,32767,-4502,-20,-532,4,-2.970708,2.659861,1.793917
4344086,19490,32767,-4820,15,-458,-3,-2.985717,2.660296,1.796055
4359712,19336,32767,-4634,0,-398,-32,-2.996527,2.660733,1.798249
4375339,19110,32767,-4260,-15,-362,-62,-3.001774,2.661094,1.798790
4390965,18894,32767,-4078,10,-354,-73,-3.012334,2.662503,1.798875
4406591,18876,32767,-4004,47,-367,-85,-3.016766,2.663392,1.798977
4422217,19044,32767,-4062,66,-382,-88,-3.023430,2.665255,1.800073
4437843,19074,32767,-4138,49,-370,-79,-3.026345,2.666178,1.800808
4453469,19142,32767,-4232,-6,-361,-97,-3.033413,2.667857,1.801675
4469096,19044,32767,-4240,-59,-326,-133,-3.043573,2.669934,1.800841
4484723,18832,32767,-3964,-61,-341,-143,-3.048752,2.671203,1.799997
4500350,18760,32767,-4132,-52,-384,-139,-3.059663,2.673848,1.798295
4515976,18638,32767,-4048,-70,-402,-130,-3.064691,2.675391,1.797772
4531602,18726,32767,-4160,-94,-427,-122,-3.076138,2.678004,1.796497
4547228,19024,32767,-4510,-105,-427,-129,-3.082323,2.679279,1.795766
4562854,19256,32767,-4880,-82,-400,-151,-3.093822,2.681902,1.794463
4578480,19284,32767,-5118,-54,-349,-158,-3.098341,2.683135,1.794097
4594107,19172,32767,-5026,-59,-271,-138,-3.105338,2.685542,1.793537
4609733,18936,32767,-5098,-56,-236,-86,-3.112653,2.686914,1.792332
4625358,18466,32767,-5024,-64,-212,-43,-3.116825,2.686944,1.791593
4640985,18130,32767,-4702,-81,-194,-63,-3.125719,2.686830,1.789783
4656611,18196,32767,-4642,-62,-208,-118,-3.133891,2.687997,1.787345
4672237,18760,32767,-5180,-26,-217,-153,-3.136657,2.689006,1.786500
4687862,19382,32767,-5424,30,-173,-132,-3.138594,2.689988,1.786068
4703489,19336,32767,-5014,112,-86,-79,-3.139858,2.690486,1.786425
4719115,18526,32767,-4518,155,-40,-40,-3.139245,2.689936,1.787098
4734749,18168,32767,-4644,120,-65,6,-3.137841,2.688742,1.788010
4750375,18080,32767,-4562,78,-84,18,-3.139325,2.686986,1.788308
4766001,18376,32767,-4596,39,-109,4,-3.140931,2.686149,1.788178
4781628,18628,32767,-4854,-4,-111,6,3.137049,2.684726,1.787233
4797255,18842,32767,-4880,-67,-107,8,3.133484,2.683873,1.786433
4812882,18626,32767,-4644,-91,-102,30,3.123800,2.682050,1.783659
4828508,18122,32767,-4020,-113,-126,67,3.118054,2.680906,1.782054
4844135,17834,32767,-3936,-156,-188,111,3.104340,2.678424,1.778212
4859761,18350,32767,-4528,-156,-212,115,3.087792,2.675632,1.773983
4875388,18710,32767,-4804,-104,-226,89,3.080796,2.674185,1.772564
4891014,18958,32767,-5022,-107,-214,59,3.069571,2.671806,1.770843
4906640,18916,32767,-4806,-69,-189,51,3.064651,2.670729,1.770075
4922266,18618,32767,-4418,11,-195,72,3.056733,2.668596,1.769215
4937892,18548,32767,-4412,28,-226,86,3.054300,2.667578,1.769513
4953517,18726,32767,-4700,12,-219,84,3.049144,2.665340,1.770342
4969144,19020,32767,-5138,-1,-195,69,3.046707,2.664318,1.770697
4984771,18972,32767,-5310,-35,-150,13,3.041527,2.662319,1.770997
5000398,18900,32767,-4936,-30,-132,-10,3.036750,2.661374,1.770482
5016025,18778,32767,-4670,32,-131,23,3.034644,2.661027,1.770190
5031651,18902,32767,-5016,62,-127,53,3.031622,2.659557,1.770518
5047277,18838,32767,-5216,6,-92,7,3.030384,2.658711,1.770887
5062904,18788,32767,-5226,4,-79,-12,3.027386,2.657857,1.770452
5078531,18732,32767,-4994,48,-84,5,3.026078,2.657506,1.770256
5094158,18662,32767,-4728,46,-92,-10,3.024618,2.656734,1.770513
5109784,18858,32767,-4902,28,-90,-10,3.023906,2.656587,1.770515
5125410,18968,32767,-5180,36,-67,34,3.021643,2.656031,1.770215
5141036,18796,32767,-5070,17,-47,13,3.018921,2.654505,1.770063
5156663,18478,32767,-4844,-8,-52,-33,3.017346,2.653995,1.769583
5172290,18498,32767,-4708,3,-73,-54,3.014522,2.654162,1.768255
5187917,18692,32767,-4694,6,-91,-71,3.013367,2.654483,1.767688
5203543,19076,32767,-5104,-3,-88,-53,3.011342,2.655313,1.766652
5219168,19344,32767,-5546,58,-45,2,3.010253,2.655325,1.766324
5234794,19028,32767,-5428,92,6,17,3.009735,2.653923,1.766963
5250420,18504,32767,-4806,71,18,-8,3.009834,2.652593,1.767284
5266047,18464,32767,-4528,63,-14,-14,3.009651,2.652240,1.767086
5281673,18654,32767,-4786,12,-37,-41,3.008474,2.652027,1.766307
5297300,18928,32767,-5082,-34,-20,-61,3.007284,2.652247,1.765562
5312927,19026,32767,-5112,-16,1,-28,3.003711,2.652310,1.763488
5328552,18798,32767,-5064,26,3,30,3.001918,2.651913,1.762655
5344179,18502,32767,-4780,20,18,-2,2.999300,2.650400,1.761874
5359806,18246,32767,-4338,26,4,-52,2.998265,2.650259,1.761165
5375432,18698,32767,-4580,51,-61,-31,2.997223,2.650728,1.759964
5391058,19226,32767,-5000,18,-45,-20,2.995909,2.650690,1.759480
5406685,18994,32767,-5006,24,-2,-16,2.994918,2.650384,1.759197
5422310,18598,32767,-4748,23,2,-13,2.993116,2.649681,1.758369
5437937,18432,32767,-4616,7,-19,-8,2.991978,2.649287,1.757870
5453563,18454,32767,-4594,-9,-41,-21,2.989147,2.649025,1.756505
5469190,18616,32767,-4642,-34,-43,-45,2.987588,2.649093,1.755719
5484816,18696,32767,-4814,-72,-50,-51,2.984046,2.649567,1.753816
5500443,18720,32767,-4900,-72,-56,-50,1.871686,-3.019304,-2.923157
5516070,18610,32767,-4648,-37,-57,-67,2.977195,2.650265,1.750371
5531696,18596,32767,-4440,17,-75,-56,2.974617,2.650922,1.748955
5547322,18836,32767,-4634,57,-86,-27,2.974417,2.651300,1.748833
5562948,19016,32767,-4966,74,-58,-17,2.974697,2.651166,1.749517
5578575,18922,32767,-5076,101,-28,-4,2.975404,2.650853,1.750141
5594201,18554,32767,-4896,94,-6,13,2.977129,2.649969,1.751541
5609827,18270,32767,-4672,61,-27,4,2.977713,2.649421,1.752044
5625454,18250,32767,-4706,32,-58,-16,2.977523,2.649055,1.752175
5641081,18640,32767,-4814,-8,-75,-27,2.976227,2.649313,1.751735
5656707,18798,32767,-4776,-6,-64,-12,2.975335,2.649392,1.751479
5672333,18808,32767,-4896,3,-53,-2,2.972809,2.648995,1.750801
5687959,18624,32767,-4894,15,-36,5,2.971642,2.648603,1.750548
5703585,18548,32767,-4766,33,-36,17,2.969928,2.647856,1.750190
5719211,18500,32767,-4570,28,-36,16,2.969434,2.647475,1.750222
5734837,18540,32767,-4618,25,-52,16,2.967548,2.646652,1.749844
5750464,18664,32767,-4714,-2,-69,16,2.966624,2.646318,1.749700
5766091,18788,32767,-4754,-11,-67,32,2.963629,2.645539,1.749056
5781717,18722,32767,-4732,-22,-48,27,2.960159,2.644361,1.748298
5797344,18564,32767,-4670,-21,-42,21,2.958346,2.643965,1.747710
5812971,18452,32767,-4586,1,-59,21,2.954916,2.643091,1.746700
5828598,18662,32767,-4652,-9,-89,5,2.953807,2.642828,1.746441
5844224,18842,32767,-4864,-19,-89,-5,2.951142,2.642508,1.745847
5859849,18854,32767,-4706,-7,-77,-2,2.950016,2.642412,1.745640
5875474,18682,32767,-4534,4,-72,4,2.947984,2.641973,1.745341
5891099,18796,32767,-4878,20,-84,30,2.946930,2.641840,1.745074
5906725,18934,32767,-5086,28,-75,40,2.945434,2.641021,1.745334
5922352,18874,32767,-4720,47,-69,41,2.944695,2.639858,1.746165
5937978,18776,32767,-4758,27,-69,39,2.944126,2.639216,1.746466
5953604,18692,32767,-4932,0,-57,31,2.942365,2.638216,1.746579
5969230,18652,32767,-4988,-13,-46,34,2.941298,2.637805,1.746418
5984857,18622,32767,-4892,-12,-48,37,2.938587,2.636922,1.745801
6000484,18714,32767,-4854,-2,-57,35,2.937358,2.636433,1.745621
6016110,18678,32767,-4730,-9,-49,9,2.935053,2.635679,1.745184
6031736,18680,32767,-4672,-16,-56,-9,2.932799,2.635509,1.744386
6047362,18790,32767,-4702,-11,-64,-13,2.931753,2.635533,1.743974
6062989,18888,32767,-4640,-1,-59,-14,2.930060,2.635708,1.743329
6078616,18956,32767,-4708,25,-52,-6,2.929491,2.635668,1.743182
6094242,18986,32767,-4822,31,-43,-9,2.928884,2.635506,1.743245
6109867,18874,32767,-4644,45,-41,-7,2.928780,2.635411,1.743314
6125494,18670,32767,-4404,57,-51,6,2.928995,2.635158,1.743731
6141120,18672,32767,-4564,27,-64,3,2.928956,2.635037,1.743940
6156750,18774,32767,-4762,4,-67,7,2.928175,2.634946,1.743887
6172376,18764,32767,-4738,12,-63,21,2.926837,2.634675,1.743733
6188002,18748,32767,-4734,11,-71,21,2.926189,2.634383,1.743805
6203628,18692,32767,-4710,-18,-76,-4,2.924703,2.634026,1.743684
6219255,18738,32767,-4618,-35,-77,-21,2.923784,2.634161,1.743352
6234881,18746,32767,-4512,-17,-87,-23,2.921602,2.634581,1.742404
6250507,18778,32767,-4636,-5,-101,-27,2.920740,2.634846,1.742064
6266134,18894,32767,-4808,12,-91,-17,2.920066,2.635349,1.742098
6281761,18992,32767,-4942,34,-66,-15,2.919990,2.635413,1.742522
6297387,18882,32767,-4850,26,-52,-26,2.920291,2.635432,1.742872
6313013,18644,32767,-4756,29,-57,-29,2.920400,2.635704,1.743055
6328640,18594,32767,-4652,17,-82,-38,2.920563,2.635940,1.743177
6344267,18740,32767,-4790,6,-99,-36,2.920923,2.636857,1.743364
6359894,19020,32767,-5022,17,-89,-33,2.920864,2.637199,1.743428
6375521,19036,32767,-5050,27,-54,-29,2.921199,2.637682,1.743870
6391147,18804,32767,-4850,36,-22,-32,2.921264,2.637657,1.744010
6406773,18476,32767,-4642,49,-27,-34,2.921797,2.638013,1.744108
6422399,18624,32767,-4716,50,-47,-31,2.922655,2.638516,1.744296
6438026,18766,32767,-4826,45,-54,-21,2.923084,2.638777,1.744464
6453652,18856,32767,-4728,34,-39,-15,2.923602,2.638850,1.744971
6469279,18678,32767,-4696,10,-30,-23,2.923491,2.638903,1.744943
6484905,18632,32767,-4674,-9,-32,-29,2.922470,2.639086,1.744330
6500531,18642,32767,-4728,-24,-44,-30,2.921568,2.639209,1.743797
6516158,18772,32767,-4734,-27,-52,-16,2.919541,2.639568,1.742622
6531784,18806,32767,-4688,-10,-45,-3,2.917345,2.639406,1.741737
6547409,18732,32767,-4702,-3,-36,-4,2.916259,2.639164,1.741343
6563036,18638,32767,-4752,11,-33,-3,2.914782,2.638967,1.740772
6578662,18666,32767,-4742,16,-47,-13,2.914351,2.638872,1.740654
6594287,18756,32767,-4870,-5,-45,-25,2.913760,2.639013,1.740469
6609912,18872,32767,-4892,17,-36,-14,2.913264,2.639109,1.740263
6625539,18908,32767,-4934,23,-13,-15,2.912847,2.639006,1.740196
6641164,18948,32767,-5012,32,11,-22,2.912679,2.638937,1.740126
6656790,18814,32767,-5016,45,27,-23,2.912771,2.638726,1.740054
6672415,18906,32767,-5130,18,52,-38,2.912998,2.638731,1.739703
6688041,18944,32767,-5058,29,77,-39,2.912900,2.638754,1.739313
6703668,19008,32767,-5158,26,109,-39,2.912634,2.638662,1.738344
6719294,19028,32767,-5194,22,159,-37,2.912344,2.638607,1.737685
6734921,18930,32767,-5202,38,205,-33,2.911273,2.638085,1.735844
6750547,18744,32767,-5058,31,238,-65,2.911042,2.637817,1.734909
6766173,18638,32767,-4838,46,249,-70,2.910742,2.638091,1.732400
6781800,18672,32767,-4736,77,256,-50,2.910937,2.638132,1.730195
6797427,18768,32767,-4536,94,275,-48,2.911287,2.637886,1.729344
6813053,18772,32767,-4596,82,302,-42,2.911808,2.637616,1.727215
6828678,18654,32767,-4396,81,327,-31,2.911725,2.637246,1.725979
6844304,18392,32767,-3936,82,342,-50,2.911290,2.636634,1.723186
6859930,18244,32767,-3520,104,315,-73,2.910855,2.636561,1.721446
6875557,18442,32767,-3612,90,262,-58,2.911154,2.636981,1.718534
6891184,18712,32767,-3914,18,244,-36,2.911043,2.637092,1.717203
6906811,18784,32767,-4070,-13,256,-24,2.907644,2.636733,1.713599
6922436,18534,32767,-3848,14,248,-23,2.905370,2.636259,1.711646
6938063,18478,32767,-3908,60,226,-29,2.902739,2.635843,1.708537
6953690,18742,32767,-4234,54,230,-37,2.901809,2.635608,1.706255
6969317,18992,32767,-4478,63,267,-46,2.901819,2.635521,1.705339
6984944,18974,32767,-4266,82,317,-50,2.902154,2.635194,1.703428
7000570,18626,32767,-4122,84,349,-64,2.902660,2.635033,1.702458
7016195,18534,32767,-4062,94,364,-77,2.903622,2.635159,1.699974
7031821,18540,32767,-4066,105,375,-87,2.905328,2.635741,1.697442
7047447,18672,32767,-4110,83,409,-99,2.906194,2.636033,1.696122
7063072,18666,32767,-4054,94,467,-99,2.906727,2.636613,1.692634
7078698,18484,32767,-3838,114,492,-114,2.907536,2.636925,1.691007
7094324,18318,32767,-3506,102,497,-134,2.909261,2.637944,1.687350
7109950,18382,32767,-3354,83,499,-127,2.909717,2.638683,1.685243
7125576,18408,32767,-3076,91,519,-114,2.909642,2.639927,1.680796
7141202,18332,32767,-3126,103,532,-123,2.909278,2.640359,1.678413
7156829,18272,32767,-3108,126,528,-132,2.909421,2.641515,1.673960
7172456,18190,32767,-2770,155,508,-116,2.910912,2.642216,1.672225
7188083,18162,32767,-2456,133,469,-90,2.913722,2.643294,1.668926
7203708,18010,32767,-2206,117,453,-68,2.914739,2.643973,1.665484
7219335,17870,32767,-2282,97,423,-46,2.914289,2.644033,1.663593
7234962,17760,32767,-2358,72,390,-45,2.912776,2.644192,1.659889
7250589,17872,32767,-2622,38,366,-81,2.911530,2.644339,1.658053
7266215,17938,32767,-2494,-9,350,-114,2.908295,2.645539,1.654109
7281842,18010,32767,-2214,17,332,-102,2.903450,2.647130,1.649761
7297468,18062,32767,-2048,65,317,-86,2.902407,2.647612,1.648192
7313093,17958,32767,-2206,81,316,-78,2.902125,2.648167,1.646803
7328719,18136,32767,-2674,90,348,-64,2.902347,2.648935,1.644414
7344345,18230,32767,-2894,99,369,-69,2.904575,2.649344,1.642589
7359972,18130,32767,-2690,89,408,-81,2.906422,2.649653,1.641715
7375598,17932,32767,-2418,96,441,-71,2.908865,2.650182,1.639455
7391224,17828,32767,-2374,90,451,-62,2.909257,2.650438,1.637981
7406850,18000,32767,-2510,95,456,-59,2.909948,2.650846,1.635023
7422477,18126,32767,-2692,92,502,-60,2.910624,2.651053,1.633617
7438103,18108,32767,-2668,48,554,-69,2.910515,2.651227,1.630184
7453729,17922,32767,-2504,41,615,-66,2.904718,2.651532,1.625252
7469356,17688,32767,-2126,51,652,-65,2.900641,2.651649,1.622517
7484981,17486,32767,-1830,74,673,-57,2.892064,2.652205,1.616799
7500607,17490,32767,-1664,109,672,-51,2.888141,2.652405,1.614051
7516232,17600,32767,-1520,103,684,-62,2.881427,2.652889,1.608930
7531858,17742,32767,-1434,108,710,-62,2.873028,2.653551,1.603711
7547483,17602,32767,-1368,130,743,-45,2.867894,2.653765,1.601002
7563110,17332,32767,-1104,118,773,-42,2.862401,2.653806,1.598329
7578737,16986,32767,-698,96,748,-51,2.844003,2.654387,1.592286
7594363,17196,32767,-794,71,709,-60,2.814487,2.655418,1.586037
7609990,17406,32767,-1076,25,719,-88,2.795348,2.656122,1.582948
7625616,17384,32767,-928,17,753,-101,2.729860,2.657796,1.575932
7641242,17156,32767,-620,48,765,-111,2.686629,2.658802,1.572528
7656869,17026,32767,-364,93,758,-118,2.554921,0.480431,1.565920
7672495,16988,32767,-282,132,763,-112,2.458241,0.479101,1.563121
7688120,16970,32767,-452,116,784,-134,2.077340,0.476490,1.558073
7703749,16948,32767,-518,109,802,-174,1.681206,0.474931,1.555472
7719375,16818,32767,-420,123,824,-169,0.730029,0.471198,1.550218
7735001,16740,32767,-210,119,858,-175,0.293827,0.467282,1.545130
7750627,16480,32767,-96,116,888,-207,0.190437,0.465203,1.542504
7766253,16350,32767,114,92,897,-245,0.081336,0.460225,1.536541
7781879,16336,32767,152,101,906,-250,0.028395,0.454366,1.530403
7797504,16152,32767,188,128,937,-237,0.007918,0.451569,1.527572
7813131,15870,32767,198,145,962,-256,-0.010818,0.448700,1.524902
7828757,15784,32767,520,183,965,-272,-0.041375,0.442246,1.519922
7844383,15862,32767,836,207,961,-239,-0.069600,0.436053,1.516070
7860010,15718,32767,706,134,1005,-236,-0.079272,0.433209,1.513935
7875637,15284,32767,630,50,1038,-261,-0.086078,0.427381,1.508005
7891263,14700,32767,1012,25,1036,-270,-0.084429,0.424028,1.504285
7906890,14518,32767,1504,5,999,-273,-0.078083,0.416884,1.496539
7922516,14712,32767,1684,-8,964,-289,-0.073903,0.413179,1.492609
7938143,14876,32767,1596,-7,976,-297,-0.065105,0.405619,1.484830
7953769,14690,32767,1666,-5,1001,-288,-0.061330,0.401992,1.480995
7969395,14266,32767,1980,22,995,-282,-0.055731,0.394671,1.473706
7985021,13966,32767,2186,19,975,-301,-0.051900,0.387113,1.467098
8000648,13808,32767,2606,48,949,-301,-0.049658,0.383125,1.463867
8016274,13634,32767,2840,71,918,-314,-0.047539,0.375065,1.458488
8031900,13536,32767,2946,32,883,-345,-0.044174,0.366649,1.453347
8047527,13546,32767,2918,13,869,-346,-0.041359,0.362271,1.450634
8063153,13374,32767,2846,25,860,-334,-0.039131,0.357979,1.448149
8078780,13136,32767,2780,46,845,-336,-0.035650,0.349716,1.443587
8094406,12794,32767,3120,96,821,-346,-0.034742,0.345626,1.441736
8110033,12678,32767,3102,124,793,-327,-0.034482,0.337053,1.439125
8125659,12612,32767,2952,141,777,-307,-0.036492,0.329144,1.437704
8141286,12360,32767,2900,152,761,-310,-0.037930,0.325382,1.437285
8156913,12184,32767,2872,145,751,-315,-0.041399,0.318045,1.436996
8172538,11944,32767,3056,148,728,-317,-0.042639,0.314213,1.436859
8188164,11774,32767,2996,119,705,-334,-0.044482,0.306683,1.436591
8203790,11796,32767,2880,102,711,-342,-0.044592,0.302790,1.436341
8219416,11678,32767,2872,134,720,-317,-0.044783,0.295080,1.435845
8235042,11426,32767,2762,85,717,-301,-0.046067,0.288121,1.435636
8250668,11238,32767,2952,91,702,-297,-0.046081,0.284745,1.435288
8266295,11092,32767,3152,108,697,-278,-0.046363,0.278107,1.434832
8281921,11010,32767,2994,54,707,-258,-0.046621,0.275005,1.434597
8297547,10986,32767,2756,18,718,-255,-0.045951,0.269208,1.433286
8313173,10678,32767,2834,-40,715,-256,-0.044859,0.266302,1.432202
8328799,10446,32767,3210,-53,714,-272,-0.041228,0.260464,1.429204
8344426,10348,32767,3442,-73,699,-274,-0.038681,0.257268,1.427445
8360053,10348,32767,3164,-90,700,-266,-0.033072,0.251024,1.423502
8375678,10132,32767,3090,-77,702,-276,-0.027997,0.244981,1.419788
8391304,9946,32767,3358,-54,703,-284,-0.025876,0.241901,1.418228
8406930,9850,32767,3476,-3,702,-285,-0.022109,0.235484,1.415651
8422556,9756,32767,3700,34,694,-275,-0.020732,0.232150,1.414819
8438183,9602,32767,3800,8,674,-268,-0.019243,0.226087,1.413741
8453808,9434,32767,3540,-12,670,-267,-0.018046,0.223073,1.412967
8469435,9316,32767,3330,-12,673,-264,-0.015408,0.217047,1.411269
8485061,9080,32767,3500,5,651,-261,3.139533,-0.005075,1.285870
8500687,8916,32767,3728,25,655,-249,-0.012612,0.208415,1.409582
8516314,8642,32767,3718,39,650,-233,-0.011593,0.202892,1.409096
8531941,8376,32767,3754,31,611,-236,-0.011254,0.200243,1.408929
8547568,8338,32767,3772,32,575,-227,-0.010279,0.194916,1.408794
8563194,8354,32767,3616,38,550,-213,-0.009915,0.192390,1.408872
8578819,8238,32767,3822,-3,534,-221,-0.009390,0.187797,1.409000
8594446,7990,32767,4108,-53,513,-207,-0.008553,0.185550,1.408589
8610073,7864,32767,4140,-95,472,-170,-0.006003,0.181469,1.406759
8625698,7766,32767,3854,-87,440,-144,-0.003501,0.178270,1.404446
8641324,7732,32767,3510,-93,407,-154,-0.002419,0.176788,1.403410
8656951,7724,32767,3602,-47,389,-150,-0.000971,0.173956,1.402101
8672576,7572,32767,4180,-15,380,-136,-0.000877,0.172724,1.401977
8688202,7304,32767,4698,-28,353,-137,-0.000579,0.170176,1.401699
8703828,7270,32767,4488,-34,307,-127,-0.000039,0.168925,1.401308
8719455,7418,32767,3978,-50,286,-105,0.000994,0.166830,1.400369
8735081,7458,32767,3810,-7,285,-97,0.001051,0.166012,1.400189
8750708,7324,32767,3750,62,284,-107,-0.000586,0.164881,1.401163
8766335,7182,32767,3952,101,280,-119,-0.003047,0.163314,1.403470
8781961,7166,32767,3952,136,267,-131,-0.004271,0.162366,1.404847
8797588,7282,32767,3752,157,269,-145,-0.007182,0.160279,1.408382
8813213,7414,32767,3450,200,296,-143,-0.008898,0.159278,1.410400
8828839,7302,32767,3182,241,330,-135,-0.013438,0.157283,1.415517
8844465,7130,32767,3144,283,349,-118,-0.016209,0.156314,1.418539
8860091,6984,32767,3170,273,363,-130,-0.022517,0.154591,1.425197
8875718,6716,32767,3096,176,345,-171,-0.026972,0.152097,1.430794
8891345,6762,32767,3150,149,343,-163,-0.027991,0.150587,1.432675
8906971,6730,32767,3196,152,347,-150,-0.030049,0.147876,1.436162
8922596,6674,32767,3088,115,344,-149,-0.031069,0.146680,1.437784
8938223,6372,32767,3200,118,344,-131,-0.032699,0.144410,1.440417
8953850,6286,32767,3266,85,323,-135,-0.033514,0.143346,1.441723
8969477,6228,32767,3208,13,308,-142,-0.034004,0.141096,1.443292
8985104,6162,32767,3394,-10,291,-134,-0.033474,0.139903,1.443276
9000730,6080,32767,3516,31,265,-107,-0.032497,0.137783,1.443182
9016356,5920,32767,3646,31,249,-91,-0.032725,0.136353,1.443822
9031983,5884,32767,3462,19,222,-100,-0.032907,0.135759,1.444139
9047609,5898,32767,3334,-36,194,-115,-0.032486,0.134323,1.444280
9063236,5934,32767,3454,-8,171,-96,-0.031856,0.133530,1.444013
9078862,5934,32767,3276,25,177,-76,-0.031862,0.132565,1.444370
9094487,5750,32767,3274,52,164,-75,-0.032174,0.132177,1.444802
9110113,5512,32767,3476,64,137,-71,-0.033432,0.131555,1.446380
9125740,5486,32767,3562,30,106,-81,-0.033909,0.131191,1.447121
9141365,5764,32767,3186,-12,82,-95,-0.033933,0.130210,1.447894
9156991,5902,32767,3016,-2,91,-82,-0.033689,0.129429,1.448212
9172617,5820,32767,2916,23,98,-61,-0.033950,0.129239,1.448562
9188243,5624,32767,3006,39,99,-53,-0.035302,0.129170,1.449928
9203870,5486,32767,3178,10,81,-64,-0.035984,0.129134,1.450604
9219496,5502,32767,3168,-8,47,-63,-0.036558,0.128854,1.451368
9235122,5836,32767,2850,-7,56,-65,-0.036730,0.128719,1.451675
9250749,5906,32767,2672,10,79,-77,-0.037312,0.128599,1.452317
9266375,5742,32767,2780,68,103,-55,-0.038589,0.128411,1.453842
9282001,5512,32767,3196,94,123,-50,-0.039643,0.128398,1.454987
9297627,5210,32767,3412,77,90,-53,-0.041813,0.128345,1.457330
9313253,5234,32767,3226,27,54,-57,-0.042328,0.128103,1.458131
9328879,5638,32767,2864,-24,42,-62,-0.042612,0.127713,1.458784
9344505,5702,32767,2640,-12,58,-59,-0.042636,0.127689,1.458762
9360131,5380,32767,2978,59,63,-9,-0.043653,0.127882,1.459594
9375757,4924,32767,3468,16,8,11,-0.044936,0.128335,1.460540
9391384,4900,32767,3518,-46,-74,5,-0.046191,0.129300,1.460959
9407011,5036,32767,3722,-79,-104,-16,-0.045921,0.129996,1.460081
9422638,5236,32767,3598,-126,-134,-17,-0.045482,0.130345,1.459337
9438263,5466,32767,3328,-95,-131,-2,-0.044206,0.131177,1.457280
9453889,5612,32767,2906,13,-104,-2,-0.044194,0.131842,1.456741
9469514,5734,32767,2576,127,-66,-2,-0.046434,0.133184,1.458390
9485141,5786,32767,2378,214,-23,3,-0.048690,0.133860,1.460577
9500768,5622,32767,2640,264,5,8,-0.054576,0.135284,1.466397
9516394,5426,32767,2794,217,9,5,-0.060435,0.136406,1.472454
9532020,5266,32767,2842,38,-12,-7,-0.062187,0.136828,1.474153
9547646,5296,32767,2774,-59,-16,-20,-0.063355,0.137383,1.474997
9563273,5278,32767,2922,-95,-27,-19,-0.063138,0.137565,1.474513
9578899,5310,32767,3096,-102,-40,-20,-0.062063,0.137916,1.472839
9594525,5372,32767,3162,-90,-51,-16,-0.061432,0.138088,1.471914
9610152,5518,32767,3100,-36,-57,-9,-0.060505,0.138491,1.470464
9625779,5502,32767,3014,26,-47,-3,-0.060880,0.139018,1.470399
9641405,5438,32767,3016,96,-37,-3,-0.062536,0.139853,1.471653
9657031,5346,32767,2994,147,-41,3,-0.065524,0.140622,1.474616
9672658,5366,32767,2870,142,-38,1,-0.067118,0.141003,1.476240
9688285,5368,32767,2838,135,-40,4,-0.070356,0.141741,1.479568
9703911,5364,32767,2842,89,-43,3,-0.071925,0.142154,1.481109
9719538,5344,32767,2798,22,-53,0,-0.074071,0.142940,1.482986
9735164,5388,32767,2750,13,-58,1,-0.074605,0.143352,1.483254
9750791,5440,32767,2796,7,-53,-7,-0.075495,0.143976,1.483818
9766417,5436,32767,2766,7,-48,-7,-0.075837,0.144221,1.484015
9782043,5382,32767,2884,64,-43,0,-0.076771,0.144807,1.484650
9797669,5450,32767,2824,64,-40,-4,-0.078318,0.145395,1.486008
9813295,5452,32767,2814,51,-40,-4,-0.079158,0.145735,1.486697
9828921,5398,32767,2798,52,-45,-2,-0.080571,0.146275,1.487952
9844548,5392,32767,2780,49,-49,5,-0.081255,0.146556,1.488539
9860175,5296,32767,2870,44,-54,-2,-0.082715,0.147247,1.489664
9875801,5328,32767,2788,35,-57,-7,-0.083166,0.147399,1.490111
9891427,5376,32767,2718,34,-60,-6,-0.083939,0.147799,1.490788
9907052,5376,32767,2858,57,-63,-1,-0.084927,0.148186,1.491734
9922679,5368,32767,2824,56,-67,1,-0.085762,0.148525,1.492439
9938304,5368,32767,2682,50,-67,0,-0.086999,0.149054,1.493539
9953930,5420,32767,2674,61,-67,-1,-0.087700,0.149347,1.494140
9969556,5406,32767,2708,63,-68,1,-0.089019,0.149816,1.495405
9985182,5432,32767,2632,69,-61,1,-0.089748,0.150073,1.496090
10000808,5420,32767,2580,57,-53,-4,-0.091321,0.150665,1.497483
10016434,5408,32767,2624,64,-52,0,-0.092041,0.150954,1.498071
10032060,5396,32767,2682,61,-52,2,-0.093449,0.151344,1.499475
10047687,5428,32767,2658,12,-62,-2,-0.094256,0.151732,1.500142
10063313,5468,32767,2640,-6,-53,-8,-0.094525,0.152031,1.500196
10078938,5404,32767,2688,-6,-56,-11,-0.094416,0.152300,1.499905
10094565,5376,32767,2664,7,-57,-5,-0.094326,0.152375,1.499784
10110192,5368,32767,2652,28,-60,-3,-0.094581,0.152692,1.499880
10125819,5448,32767,2736,36,-66,-9,-0.094856,0.152815,1.500145
10141446,5558,32767,2586,38,-63,-6,-0.095544,0.153122,1.500807
10157073,5440,32767,2548,48,-51,-4,-0.095971,0.153305,1.501190
10172699,5370,32767,2622,37,-45,-8,-0.097003,0.153677,1.502128
10188325,5430,32767,2518,0,-53,-13,-0.097307,0.153779,1.502504
10203951,5452,32767,2662,-8,-53,-8,-0.097270,0.153833,1.502465
10219576,5440,32767,2698,-20,-58,-10,-0.097009,0.154042,1.502059
10235203,5438,32767,2700,-14,-52,-10,-0.096701,0.154131,1.501669
10250829,5426,32767,2700,-3,-54,-12,-0.096438,0.154341,1.501263
10266456,5408,32767,2686,2,-60,-14,-0.096261,0.154351,1.501119
10282083,5414,32767,2560,20,-55,-11,-0.096044,0.154364,1.501020
10297708,5442,32767,2628,43,-55,-8,-0.096654,0.154585,1.501633
10313334,5384,32767,2608,42,-54,-5,-0.097111,0.154730,1.502099
10328960,5338,32767,2694,31,-59,-3,-0.097862,0.154993,1.502817
10344586,5424,32767,2616,4,-62,-7,-0.098004,0.155070,1.502979
10360213,5436,32767,2578,-5,-59,-11,-0.097860,0.155201,1.502834
10375839,5448,32767,2544,0,-53,-12,-0.097768,0.155277,1.502714
10391465,5420,32767,2604,2,-51,-10,-0.097636,0.155407,1.502555
10407092,5380,32767,2666,-3,-50,-13,-0.097597,0.155461,1.502516
10422719,5334,32767,2894,17,-60,-9,-0.097379,0.155474,1.502417
10438345,5384,32767,2754,-1,-66,-6,-0.097133,0.155524,1.502235
10453972,5444,32767,2704,-9,-68,-10,-0.096998,0.155638,1.502048
10469598,5414,32767,2612,14,-62,-5,-0.096823,0.155806,1.501822
10485223,5484,32767,2490,25,-56,-6,-0.097009,0.155986,1.501940
10500849,5494,32767,2532,55,-44,-7,-0.097528,0.156122,1.502518
10516474,5430,32767,2698,61,-49,-4,-0.098033,0.156225,1.503053
10532100,5362,32767,2680,18,-58,-5,-0.098877,0.156425,1.503937
10547726,5412,32767,2716,-42,-56,-13,-0.098338,0.156549,1.503310
10563352,5378,32767,2714,-47,-52,-10,-0.097669,0.156563,1.502618
10578978,5372,32767,2778,-7,-63,-4,-0.096578,0.156588,1.501500
10594603,5488,32767,2674,3,-61,-13,-0.096340,0.156622,1.501275
10610230,5498,32767,2610,21,-49,-14,-0.096243,0.156732,1.501214
10625856,5388,32767,2780,59,-50,0,-0.096426,0.156770,1.501444
10641482,5368,32767,2750,54,-53,-5,-0.097388,0.157048,1.502352
10657109,5450,32767,2602,31,-59,-10,-0.097600,0.157048,1.502664
10672736,5380,32767,2588,31,-59,-3,-0.097998,0.157101,1.503235
10688361,5370,32767,2618,12,-53,-3,-0.098256,0.157257,1.503421
10703987,5368,32767,2710,-3,-57,-11,-0.098344,0.157370,1.503532
10719614,5384,32767,2748,-1,-61,-6,-0.098008,0.157481,1.503189
10735240,5488,32767,2734,2,-57,-6,-0.097796,0.157478,1.503047
10750867,5358,32767,2772,10,-56,-7,-0.097629,0.157647,1.502809
10766494,5352,32767,2664,23,-59,-5,-0.097531,0.157724,1.502690
10782121,5380,32767,2668,35,-55,-3,-0.097690,0.157778,1.502980
10797750,5402,32767,2738,37,-62,-2,-0.098292,0.158027,1.503516
10813376,5380,32767,2744,26,-63,-5,-0.098465,0.158063,1.503762
10829002,5482,32767,2624,17,-63,-5,-0.098511,0.158215,1.503807
10844628,5444,32767,2642,31,-58,-1,-0.098656,0.158289,1.503971
10860255,5464,32767,2584,25,-52,-5,-0.099033,0.158502,1.504323
10875882,5352,32767,2718,23,-52,-5,-0.099193,0.158575,1.504472
10891509,5406,32767,2770,23,-54,-5,-0.099470,0.158707,1.504786
10907135,5382,32767,2712,6,-52,-6,-0.099428,0.158761,1.504748
10922762,5460,32767,2548,-19,-56,-11,-0.099014,0.158755,1.504450
10938389,5418,32767,2628,-29,-57,-16,-0.098770,0.158790,1.504227
10954015,5410,32767,2694,3,-52,-8,-0.097819,0.158704,1.503436
10969641,5368,32767,2742,22,-53,-8,-0.097660,0.158695,1.503405
10985266,5364,32767,2794,30,-59,-2,-0.097647,0.158711,1.503449
11000893,5436,32767,2756,11,-67,-4,-0.097880,0.158881,1.503697
11016520,5446,32767,2556,-9,-60,-14,-0.097721,0.158856,1.503636
11032147,5456,32767,2588,5,-57,-9,-0.097314,0.158866,1.503353
11047773,5408,32767,2670,32,-52,-3,-0.097503,0.159059,1.503505
11063399,5422,32767,2616,37,-54,-10,-0.097751,0.159070,1.503817
11079026,5386,32767,2724,27,-54,-6,-0.097825,0.159024,1.504024
11094652,5386,32767,2714,9,-60,-2,-0.098162,0.159131,1.504420
11110277,5404,32767,2808,-27,-58,-13,-0.097811,0.159245,1.504079
11125904,5434,32767,2682,-27,-62,-12,-0.097255,0.159184,1.503631
11141531,5432,32767,2642,-20,-54,-13,-0.096140,0.159061,1.502734
11157158,5360,32767,2736,26,-45,-7,-0.095817,0.158979,1.502554
11172784,5370,32767,2796,45,-50,-4,-0.096108,0.159109,1.502854
11188411,5366,32767,2774,31,-58,-6,-0.096299,0.159143,1.503085
11204037,5428,32767,2644,29,-65,-1,-0.096519,0.159169,1.503457
11219664,5446,32767,2698,-2,-50,-7,-0.096753,0.159338,1.503706
11235290,5352,32767,2696,3,-55,-8,-0.096515,0.159375,1.503468
11250916,5344,32767,2650,6,-58,-4,-0.096246,0.159428,1.503290
11266542,5370,32767,2740,7,-58,-9,-0.096200,0.159483,1.503254
11282167,5458,32767,2820,18,-58,-5,-0.095742,0.159338,1.503094
11297793,5486,32767,2732,7,-53,-7,-0.095899,0.159569,1.503166
11313419,5408,32767,2718,14,-51,-8,-0.095690,0.159568,1.503010
11329046,5308,32767,2714,26,-57,-7,-0.095733,0.159560,1.503136
11344673,5416,32767,2732,32,-62,-4,-0.095864,0.159648,1.503346
11360299,5406,32767,2762,25,-60,-8,-0.096087,0.159672,1.503719
11375925,5438,32767,2650,11,-61,-6,-0.096131,0.159663,1.503845
11391552,5388,32767,2606,3,-53,-5,-0.096008,0.159758,1.503773
11407178,5314,32767,2644,14,-51,-4,-0.095960,0.159813,1.503737
11422804,5372,32767,2746,22,-50,-5,-0.095929,0.159844,1.503827
11438431,5382,32767,2734,22,-58,-7,-0.095854,0.159771,1.503958
11454058,5446,32767,2776,11,-58,-5,-0.095838,0.159787,1.504004
11469685,5406,32767,2708,1,-55,-8,-0.095743,0.159881,1.503902
11485311,5380,32767,2654,3,-52,-6,-0.095364,0.159855,1.503685
11500937,5336,32767,2698,21,-59,-6,-0.095102,0.159910,1.503492
11516562,5438,32767,2636,38,-61,-7,-0.095222,0.159966,1.503659
11532189,5420,32767,2700,35,-58,-5,-0.095720,0.159980,1.504299
11547816,5462,32767,2746,22,-57,-5,-0.095868,0.160050,1.504465
11563443,5372,32767,2660,4,-55,-5,-0.095836,0.160081,1.504555
11579069,5348,32767,2636,8,-60,-3,-0.095694,0.160200,1.504358
11594696,5374,32767,2720,15,-62,-5,-0.095509,0.160190,1.504343
11610322,5432,32767,2662,25,-58,-5,-0.095505,0.160235,1.504433
11625948,5430,32767,2666,24,-55,-6,-0.095593,0.160330,1.504519
11641575,5384,32767,2716,24,-55,-4,-0.095740,0.160416,1.504715
11657202,5446,32767,2670,24,-57,-5,-0.095785,0.160406,1.504842
11672829,5418,32767,2676,2,-59,-8,-0.095753,0.160436,1.504932
11688456,5446,32767,2696,-11,-58,-7,-0.095224,0.160516,1.504488
11704083,5380,32767,2666,-2,-56,-5,-0.094974,0.160556,1.504251
11719708,5470,32767,2606,-5,-58,-10,-0.094742,0.160556,1.504110
11735335,5466,32767,2666,17,-50,-7,-0.094258,0.160597,1.503732
11750962,5370,32767,2762,34,-57,-3,-0.094405,0.160682,1.503929
11766589,5462,32767,2706,17,-63,-4,-0.094603,0.160711,1.504161
11782216,5412,32767,2606,4,-57,-9,-0.094485,0.160822,1.504106
11797843,5416,32767,2644,14,-58,-9,-0.094208,0.160718,1.504005
11813469,5392,32767,2694,23,-55,-2,-0.094173,0.160748,1.504096
11829096,5356,32767,2742,20,-54,-8,-0.094338,0.160817,1.504248
11844722,5428,32767,2686,3,-62,-11,-0.094148,0.160808,1.504233
11860349,5446,32767,2736,3,-56,-11,-0.093870,0.160704,1.504132
11875976,5430,32767,2732,26,-54,-6,-0.093293,0.160626,1.503808
11891602,5440,32767,2684,36,-55,0,-0.093608,0.160765,1.504127
11907229,5462,32767,2700,24,-57,-5,-0.093808,0.160793,1.504359
11922856,5418,32767,2640,10,-59,-11,-0.093940,0.160877,1.504572
11938483,5448,32767,2658,16,-59,-8,-0.093748,0.160867,1.504557
11954110,5352,32767,2682,31,-56,-8,-0.093914,0.160936,1.504709
11969735,5416,32767,2606,23,-58,-9,-0.093959,0.160925,1.504835
11985362,5442,32767,2608,18,-55,-5,-0.094022,0.160888,1.505088
12000988,5372,32767,2806,5,-55,-9,-0.093845,0.160879,1.505057
12016613,5366,32767,2726,-14,-57,-12,-0.093465,0.160841,1.504795
12032240,5370,32767,2748,3,-57,-9,-0.092581,0.160687,1.504244
12047867,5418,32767,2648,21,-58,-3,-0.092342,0.160689,1.504103
12063493,5392,32767,2746,26,-55,-6,-0.092595,0.160851,1.504342
12079119,5400,32767,2706,32,-59,-6,-0.092639,0.160840,1.504468
12094749,5400,32767,2604,33,-56,-5,-0.092765,0.160777,1.504800
12110376,5474,32767,2646,28,-56,-8,-0.092968,0.160804,1.505033
12126002,5406,32767,2814,27,-57,-3,-0.093202,0.160820,1.505406
12141628,5412,32767,2706,21,-58,-6,-0.093351,0.160901,1.505605
12157255,5460,32767,2626,9,-54,-9,-0.093174,0.160877,1.505544
12172882,5392,32767,2680,22,-55,-7,-0.092994,0.160867,1.505514
12188509,5364,32767,2740,28,-55,-3,-0.093250,0.161028,1.505753
12204135,5360,32767,2676,24,-56,-8,-0.093124,0.160963,1.505758
12219761,5394,32767,2678,22,-58,-8,-0.093048,0.160872,1.505857
12235387,5404,32767,2758,15,-57,-4,-0.093075,0.160874,1.506029
12251013,5352,32767,2688,22,-57,-6,-0.093019,0.160929,1.505995
12266639,5398,32767,2610,21,-60,-5,-0.092924,0.160851,1.506140
12282266,5476,32767,2538,20,-58,-9,-0.092914,0.160894,1.506232
12297893,5460,32767,2602,35,-50,-4,-0.093003,0.160986,1.506320
12313520,5382,32767,2726,33,-51,-5,-0.093482,0.161011,1.506865
12329146,5468,32767,2656,20,-51,-7,-0.093511,0.161012,1.507037
12344771,5426,32767,2692,14,-53,-5,-0.093319,0.160973,1.506961
12360398,5398,32767,2694,3,-54,-6,-0.093263,0.161028,1.506927
12376023,5398,32767,2672,-5,-59,-10,-0.092815,0.161047,1.506630
12391649,5408,32767,2664,12,-60,-9,-0.092069,0.160936,1.506184
12407275,5456,32767,2596,21,-54,-11,-0.091888,0.160912,1.506123
12422900,5362,32767,2598,32,-54,-8,-0.091968,0.160871,1.506360
12438526,5382,32767,2676,29,-54,-4,-0.092015,0.160859,1.506486
12454152,5408,32767,2734,8,-53,-9,-0.092042,0.160859,1.506657
12469779,5344,32767,2744,-4,-55,-8,-0.091875,0.160835,1.506581
12485406,5322,32767,2686,-6,-58,-8,-0.091057,0.160752,1.506055
12501033,5382,32767,2710,-5,-65,-8,-0.090768,0.160796,1.505834
12516660,5388,32767,2662,17,-60,-8,-0.090023,0.160701,1.505403
12532286,5396,32767,2636,32,-57,-5,-0.090048,0.160702,1.505575
12547913,5430,32767,2704,42,-56,-5,-0.090217,0.160767,1.505728
12563539,5456,32767,2606,28,-57,-7,-0.090687,0.160788,1.506289
12579166,5452,32767,2654,12,-54,-7,-0.090607,0.160857,1.506301
12594792,5390,32767,2720,8,-55,-7,-0.090586,0.160870,1.506347
12610418,5336,32767,2740,-3,-58,-6,-0.090310,0.160916,1.506111
12626043,5404,32767,2704,0,-67,-6,-0.089723,0.160859,1.505787
12641670,5470,32767,2616,15,-60,-7,0.779433,1.965373,-2.441634
12657296,5504,32767,2628,34,-53,-6,-0.089397,0.160946,1.505674
12672922,5440,32767,2674,30,-49,-8,-0.089779,0.161035,1.506060
12688548,5344,32767,2698,13,-51,-11,-0.089758,0.161048,1.506106
12704174,5330,32767,2658,9,-57,-6,-0.089330,0.160881,1.506005
12719800,5400,32767,2644,5,-55,-11,-0.089267,0.160936,1.505972
12735426,5404,32767,2702,8,-54,-5,-0.088781,0.160811,1.505807
12751052,5394,32767,2732,16,-56,-1,-0.088541,0.160816,1.505651
12766679,5406,32767,2650,10,-56,-9,-0.088455,0.160885,1.505663
12782305,5414,32767,2746,17,-61,-7,-0.088133,0.160796,1.505605
12797931,5448,32767,2656,21,-56,-7,-0.088011,0.160746,1.505624
12813557,5404,32767,2716,22,-52,-8,-0.088033,0.160745,1.505796
12829184,5420,32767,2526,17,-50,-5,-0.088096,0.160880,1.505790
12844810,5416,32767,2510,9,-44,-14,-0.087940,0.160828,1.505839
12860436,5412,32767,2632,29,-46,-8,-0.087807,0.160763,1.505842
12876063,5410,32767,2670,13,-42,-11,-0.088014,0.160798,1.506106
12891688,5258,32767,2796,10,-49,-6,-0.087729,0.160698,1.505986
12907314,5298,32767,2726,-5,-59,-3,-0.087225,0.160559,1.505805
12922941,5396,32767,2708,-13,-66,-11,-0.086466,0.160617,1.505242
12938567,5482,32767,2652,3,-59,-10,-0.086034,0.160586,1.504994
12954193,5454,32767,2632,22,-50,-4,-0.085594,0.160569,1.504776
12969818,5324,32767,2640,49,-57,-1,-0.085765,0.160633,1.504930
12985444,5386,32767,2702,41,-61,-3,-0.086596,0.160734,1.505721
13001069,5402,32767,2646,17,-61,-8,-0.086769,0.160798,1.505875
13016696,5448,32767,2612,-2,-57,-10,-0.086620,0.160761,1.505939
13032322,5348,32767,2652,0,-48,-7,-0.085954,0.160736,1.505520
13047949,5300,32767,2732,12,-56,-4,-0.085706,0.160742,1.505364
13063576,5312,32767,2730,6,-60,-8,-0.085331,0.160697,1.505226
13079202,5384,32767,2750,-8,-61,-10,-0.084584,0.160566,1.504872
13094828,5418,32767,2680,-12,-56,-9,-0.084162,0.160536,1.504609
13110454,5450,32767,2568,-9,-50,-15,-0.083739,0.160507,1.504345
13126080,5412,32767,2682,8,-51,-17,-0.082997,0.160363,1.503961
13141705,5354,32767,2674,5,-54,-12,-0.082686,0.160263,1.503855
13157332,5406,32767,2708,-21,-55,-16,-0.082121,0.160170,1.503594
13172959,5346,32767,2808,-30,-69,-13,-0.080895,0.160027,1.502851
13188585,5428,32767,2748,-45,-70,-12,-0.080223,0.159991,1.502400
13204212,5366,32767,2756,-46,-63,-17,-0.078298,0.159844,1.501081
13219838,5354,32767,2874,-15,-64,-10,-0.077446,0.159775,1.500522
13235465,5350,32767,2854,9,-68,-13,-0.076629,0.159692,1.500088
13251091,5298,32767,2774,24,-70,-11,-0.076421,0.159671,1.500027
13266718,5392,32767,2764,36,-71,-4,-0.076418,0.159536,1.500343
13282345,5350,32767,2712,16,-68,-6,-0.076615,0.159556,1.500591
13297972,5424,32767,2722,-12,-67,-11,-0.076580,0.159614,1.500699
13313598,5328,32767,2898,-1,-69,-6,-0.075867,0.159610,1.500309
13329225,5378,32767,2832,-2,-74,-3,-0.075480,0.159555,1.500139
13344851,5406,32767,2686,-3,-69,-5,-0.075007,0.159708,1.499823
13360476,5424,32767,2718,7,-63,-4,-0.074860,0.159809,1.499726
13376102,5426,32767,2628,1,-49,-5,-0.074699,0.159925,1.499661
13391729,5348,32767,2700,9,-43,-4,-0.074435,0.159934,1.499505
13407355,5316,32767,2788,9,-46,-2,-0.074519,0.160041,1.499611
13422982,5396,32767,2790,-24,-56,-5,-0.073928,0.159952,1.499348
13438609,5452,32767,2832,-43,-57,-5,-0.073315,0.160043,1.498847
13454236,5412,32767,2954,-34,-50,-10,-0.071933,0.160133,1.497816
13469863,5312,32767,2926,-17,-54,-12,-0.070551,0.160073,1.496899
13485489,5282,32767,3028,28,-59,-7,-0.070352,0.160054,1.496822
13501116,5310,32767,2972,54,-69,0,-0.070435,0.159996,1.497026
13516750,5382,32767,2834,63,-69,1,-0.071285,0.160104,1.497834
13532376,5320,32767,2816,76,-65,2,-0.071919,0.160178,1.498393
13548003,5380,32767,2772,54,-73,0,-0.073679,0.160332,1.499901
13563629,5478,32767,2696,38,-70,-3,-0.074541,0.160437,1.500710
13579255,5466,32767,2850,39,-63,1,-0.074929,0.160503,1.501082
13594881,5418,32767,2826,24,-70,2,-0.075686,0.160831,1.501606
13610508,5364,32767,2802,2,-77,-2,-0.075586,0.160888,1.501589
13626134,5422,32767,2744,1,-81,-6,-0.075157,0.160862,1.501481
13641760,5376,32767,2774,2,-83,0,-0.075005,0.160963,1.501386
13657386,5526,32767,2694,-5,-78,3,-0.074754,0.161137,1.501290
13673012,5416,32767,2776,-42,-74,-8,-0.074416,0.161205,1.501087
13688637,5256,32767,2910,-88,-98,-12,-0.073116,0.161393,1.500119
13704263,5348,32767,3028,-127,-112,-7,-0.069781,0.161281,1.497894
13719889,5348,32767,3002,-107,-113,19,-0.067803,0.161268,1.496509
13735514,5452,32767,2878,-103,-119,13,-0.064877,0.161836,1.494133
13751141,5398,32767,2912,-112,-124,10,-0.063483,0.162063,1.493071
13766768,5436,32767,2964,-55,-113,22,-0.060998,0.162646,1.491102
13782394,5298,32767,3464,8,-135,27,-0.060489,0.162962,1.490648
13798021,5204,32767,3630,34,-173,52,-0.060683,0.163777,1.490643
13813648,5210,32767,3852,52,-234,79,-0.062136,0.165213,1.491306
13829274,5296,32767,3662,21,-278,91,-0.062934,0.166123,1.491616
13844901,5242,32767,3646,6,-320,102,-0.064287,0.168243,1.491964
13860527,5328,32767,3746,18,-362,113,-0.065030,0.169503,1.492129
13876153,5410,32767,3806,36,-407,125,-0.066928,0.172234,1.492725
13891780,5428,32767,3770,70,-454,140,-0.068359,0.173721,1.493363
13907406,5592,32767,3670,110,-500,151,-0.072635,0.177248,1.495419
13923033,5752,32767,3592,141,-530,161,-0.075479,0.179022,1.496980
13938660,5802,32767,3416,156,-567,170,-0.082888,0.183010,1.501004
13954286,5938,32767,3428,143,-602,180,-0.090959,0.187172,1.505358
13969912,6008,32767,3364,125,-632,192,-0.095105,0.189386,1.507519
13985539,6198,32767,3322,91,-667,200,-0.102817,0.193940,1.511306
14001164,6306,32767,3248,53,-689,213,-0.106418,0.196404,1.512928
14016791,6384,32767,3092,23,-712,238,-0.112806,0.201542,1.515477
14032417,6564,32767,3030,3,-744,231,-0.115939,0.204334,1.516589
14048044,6812,32767,2912,24,-755,225,-0.121818,0.209725,1.518725
14063670,7020,32767,3054,43,-758,220,-0.125376,0.212380,1.520177
14079297,7182,32767,3110,64,-768,228,-0.132885,0.217737,1.523163
14094923,7386,32767,3040,70,-760,249,-0.141662,0.223232,1.526676
14110548,7454,32767,2820,75,-754,251,-0.146489,0.226221,1.528446
14126174,7528,32767,2680,73,-756,245,-0.156527,0.231999,1.532157
14141800,7738,32767,2536,81,-755,226,-0.161723,0.234779,1.534116
14157427,7916,32767,2672,126,-748,216,-0.172889,0.239891,1.538423
14173053,8114,32767,2632,163,-738,213,-0.179464,0.242273,1.541009
14188679,8260,32767,2682,211,-715,224,-0.194828,0.247292,1.546838
14204306,8436,32767,2502,254,-679,245,-0.213808,0.252577,1.553711
14219933,8384,32767,2574,238,-657,244,-0.223969,0.255299,1.557214
14235560,8356,32767,2646,193,-663,231,-0.243470,0.260372,1.563732
14251186,8550,32767,2492,123,-675,224,-0.252002,0.262680,1.566402
14266812,8786,32767,2468,68,-677,209,-0.265738,0.267190,1.570219
14282437,8888,32767,2394,34,-673,197,-0.271283,2.872391,1.571622
14298062,8868,32767,2640,35,-674,203,-0.281523,2.868330,1.573843
14313689,8990,32767,2680,52,-685,218,-0.286753,2.866327,1.574980
14329316,9182,32767,2594,82,-695,239,-0.298894,2.862030,1.577537
14344941,9308,32767,2426,77,-705,246,-0.314095,2.857300,1.580743
14360567,9354,32767,2538,60,-722,252,-0.322313,2.854933,1.582390
14376194,9418,32767,2770,40,-748,264,-0.338471,2.850016,1.585330
14391820,9570,32767,2776,-8,-770,279,-0.346390,2.847444,1.586516
14407447,9768,32767,2602,-51,-790,292,-0.359813,2.842179,1.587936
14423072,9892,32767,2542,-75,-810,299,-0.366087,2.839372,1.588341
14438698,9974,32767,2518,-84,-829,299,-0.379172,2.833669,1.589058
14454324,10198,32767,2482,-96,-855,292,-0.393994,2.828152,1.589927
14469950,10370,32767,2574,-115,-877,301,-0.402148,2.825363,1.590348
14485576,10518,32767,2662,-117,-900,327,-0.418475,2.819662,1.590885
14501203,10758,32767,2546,-106,-908,354,-0.428139,2.816523,1.591187
14516830,10912,32767,2344,-86,-908,372,-0.453662,2.809621,1.592402
14532457,11040,32767,2248,-88,-920,367,-0.470087,2.806124,1.593364
14548084,11134,32767,2206,-128,-937,355,-0.508131,2.799198,1.595248
14563711,11430,32767,2252,-157,-963,351,-0.528692,2.795977,1.595895
14579337,11738,32767,2258,-193,-974,364,-0.576775,2.789444,1.596766
14594963,11976,32767,2256,-220,-949,390,-0.637296,2.782296,1.596891
14610590,12100,32767,2184,-205,-944,394,-0.675309,2.778486,1.596854
14626217,12228,32767,2026,-215,-940,381,-0.789824,2.771153,1.597128
14641842,12442,32767,1944,-225,-944,368,-0.876975,2.767538,1.597328
14657467,12764,32767,1938,-221,-941,363,-1.178945,2.760703,1.597568
14673093,12936,32767,2150,-203,-927,370,-1.439404,2.757309,1.597863
14688719,13032,32767,2136,-183,-924,370,-2.183936,2.750366,1.598703
14704344,13124,32767,2268,-164,-914,372,-2.504122,2.746864,1.599276
14719971,13382,32767,2080,-112,-919,371,-2.871565,2.740029,1.601000
14735597,13538,32767,2052,-106,-931,353,-3.038210,2.733374,1.603815
14751222,13692,32767,2088,-93,-935,356,-3.089323,2.730278,1.605455
14766849,13810,32767,2142,-95,-940,342,3.123180,2.724000,1.609014
14782475,13956,32767,2204,-88,-963,328,3.096843,2.721170,1.610781
14798101,14118,32767,2106,-87,-983,335,3.056835,2.715677,1.614631
14813728,14392,32767,1876,-113,-978,350,3.024689,2.709888,1.618402
14829355,14548,32767,1652,-124,-971,340,3.011037,2.706997,1.620245
14844982,14644,32767,1400,-132,-1002,291,2.988319,2.701738,1.624097
14860608,14874,32767,1578,-142,-1016,275,2.978594,2.699658,1.626046
14876233,15074,32767,1572,-119,-1026,299,2.961718,2.695519,1.630102
14891859,15190,32767,1346,-119,-1012,324,2.954771,2.693233,1.632342
14907485,15132,32767,1082,-91,-1004,318,2.942346,2.688270,1.636876
14923112,15252,32767,918,-69,-1019,290,2.935212,2.683933,1.642480
14938738,15500,32767,884,-81,-1042,272,2.932853,2.682094,1.645555
14954365,15932,32767,684,-91,-1042,275,2.929692,2.680376,1.648405
14969991,16044,32767,524,-96,-996,294,2.923447,2.676648,1.654150
14985616,15978,32767,448,-105,-982,283,2.916513,2.672609,1.659515
15001243,15930,32767,454,-113,-993,271,2.912853,2.670869,1.661971
15016869,16146,32767,410,-105,-1020,283,2.905937,2.667575,1.667002
15032495,16364,32767,354,-133,-1034,284,2.902645,2.665879,1.669615
15048120,16636,32767,218,-160,-1027,285,2.894859,2.662524,1.674469
15063750,16746,32767,118,-162,-1010,301,2.890242,2.660773,1.676578
15079376,16824,32767,-132,-172,-993,305,2.881323,2.657026,1.680751
15095003,16870,32767,-242,-191,-1002,297,2.876762,2.654990,1.682808
15110630,17142,32767,-534,-216,-1001,302,2.867478,2.651491,1.686510
15126256,17292,32767,-462,-245,-986,304,2.857985,2.647893,1.689969
15141882,17352,32767,-590,-266,-956,303,2.852432,2.646022,1.691178
15157509,17446,32767,-864,-232,-925,314,2.841595,2.642336,1.693383
15173136,17586,32767,-1016,-188,-900,316,2.832891,2.638382,1.696472
15188762,17704,32767,-1174,-167,-898,296,2.829365,2.636513,1.698431
15204388,17862,32767,-1038,-163,-889,263,2.826144,2.634828,1.700411
15220015,17954,32767,-854,-150,-880,269,2.820360,2.631948,1.704302
15235640,18070,32767,-1118,-157,-842,292,2.814267,2.628840,1.708042
15251267,18150,32767,-1274,-132,-833,280,2.811016,2.627089,1.709739
15266894,18094,32767,-1520,-135,-837,265,2.805582,2.624003,1.713697
15282520,18108,32767,-1894,-226,-788,239,2.802996,2.622737,1.715549
15298147,18766,32767,-1404,-180,-798,217,2.796674,2.620708,1.717671
15313774,19344,32767,-1626,-106,-846,218,2.794234,2.619720,1.719323
15329399,19538,32767,-1962,-202,-765,228,2.789745,2.617405,1.723256
15345026,19058,32767,-1986,-212,-645,228,2.786142,2.615993,1.724086
15360653,18500,32678,-1730,-159,-637,199,2.778641,2.613171,1.724662
15376279,19018,32767,-1980,-142,-703,156,2.773914,2.611748,1.726228
15391905,19516,32767,-2178,-141,-689,147,2.772214,2.611416,1.727404
15407532,19420,32767,-2196,-201,-617,151,2.768419,2.610330,1.729590
15423158,19078,32708,-2128,-213,-555,147,2.765261,2.609581,1.729457
15438784,18696,32558,-1894,-143,-562,140,2.759683,2.608486,1.728985
15454410,18794,32472,-2006,-76,-609,125,2.757834,2.608150,1.729421
15470036,19322,32496,-2528,-63,-626,106,2.756227,2.607962,1.732172
15485662,19778,32682,-2894,-84,-579,93,2.755895,2.607964,1.733896
15501287,19578,32767,-2320,-36,-512,106,2.754345,2.607643,1.736599
15516914,19124,32767,-2012,-22,-526,120,2.752785,2.606996,1.739210
15532539,18954,32767,-2122,-42,-547,117,2.751813,2.606656,1.740379
15548165,19036,32767,-2382,-55,-567,113,2.750474,2.606608,1.742811
15563792,19390,32767,-2696,-77,-586,129,2.749683,2.606537,1.744033
15579419,19764,32767,-3132,-135,-584,107,2.747447,2.606116,1.746341
15595046,19824,32766,-3152,-183,-528,61,2.746028,2.606032,1.746919
15610671,19540,32680,-2770,-144,-498,71,2.743159,2.606452,1.746907
15626297,19338,32600,-2792,-91,-512,129,2.740278,2.606164,1.747523
15641923,19428,32520,-2900,-62,-516,132,2.738971,2.605771,1.748336
15657549,19560,32654,-3080,-29,-529,109,2.736771,2.605008,1.750526
15673176,19834,32767,-3262,-57,-529,98,2.736417,2.604911,1.752162
15688801,20068,32767,-3536,-133,-497,85,2.734671,2.604676,1.754309
15704428,19754,32767,-3304,-198,-450,79,2.733227,2.604530,1.754524
15720053,19452,32682,-3114,-216,-458,91,2.729292,2.604337,1.753125
15735680,19394,32476,-3118,-194,-480,94,2.727267,2.604305,1.752269
15751307,19682,32292,-3408,-146,-510,88,2.723667,2.604132,1.751372
15766934,19864,32130,-3492,-112,-506,93,2.721174,2.603999,1.752087
15782559,19874,32128,-3526,-78,-498,103,2.720143,2.603756,1.752978
15798185,19824,32294,-3376,-40,-491,109,2.718024,2.602943,1.755164
15813812,19830,32512,-3436,-10,-502,110,2.717177,2.602538,1.756568
15829438,19830,32722,-3560,-26,-506,116,2.716048,2.601943,1.759984
15845065,19768,32582,-3560,-70,-498,120,2.715275,2.601639,1.761391
15860692,19794,32356,-3760,-112,-509,102,2.713152,2.601014,1.763345
15876317,20004,32294,-4132,-135,-521,76,2.711133,2.601033,1.764655
15891944,20286,32206,-4348,-145,-506,60,2.710145,2.601133,1.765250
15907569,20348,32310,-4338,-139,-464,68,2.708301,2.601317,1.766362
15923195,20138,32318,-4248,-127,-427,76,2.707113,2.601156,1.766788
15938821,19982,32228,-4240,-113,-403,75,2.704712,2.600759,1.767238
15954446,19894,32170,-4260,-117,-392,71,2.703734,2.600702,1.767544
15970073,20032,32088,-4362,-76,-397,68,2.701628,2.600489,1.767904
15985700,20210,32228,-4660,-56,-380,57,2.700884,2.600395,1.768587
16001327,20228,32312,-4650,-45,-336,63,2.698968,2.600005,1.770882
16016953,20210,32134,-4606,-7,-311,70,2.698249,2.599613,1.771817
16032580,20260,32126,-4728,-4,-298,56,2.697611,2.599295,1.772689
16048207,20264,32118,-4764,-23,-266,48,2.696524,2.598816,1.774326
16063833,20194,32220,-4656,-61,-236,39,2.695863,2.598635,1.774699
16079459,20186,32364,-4506,-70,-238,26,2.694312,2.598419,1.774350
16095086,20220,32552,-4702,-85,-239,34,2.693579,2.598443,1.773955
16110712,20204,32216,-4746,-87,-214,52,2.691864,2.598366,1.773029
16126338,20106,31846,-4644,-81,-195,44,2.689577,2.597681,1.771841
16141964,20172,31752,-4724,-30,-203,40,2.688590,2.597361,1.771449
16157590,20194,31790,-4756,-6,-194,29,2.687286,2.596845,1.771696
16173217,20312,32016,-4636,-14,-190,-12,2.686717,2.596668,1.771844
16188843,20290,32190,-4692,-2,-198,-39,2.686650,2.597282,1.772071
16204469,20268,32250,-4762,-50,-177,-49,2.686830,2.597835,1.772160
16220096,20084,31956,-4728,-102,-145,-63,2.686996,2.599209,1.770843
16235722,19990,31644,-4748,-61,-139,-56,2.686814,2.600501,1.768896
16251348,20122,31494,-4872,-1,-146,-56,2.686921,2.601042,1.768438
16266975,20426,31728,-5024,30,-137,-75,2.687255,2.601580,1.768595
16282602,20664,32084,-4958,80,-87,-65,2.688389,2.602703,1.769438
16298229,20498,32226,-4924,75,-46,-53,2.689324,2.603347,1.770394
16313855,20176,32208,-4970,68,-17,-47,2.689531,2.603510,1.770428
16329481,19938,32174,-4816,79,-2,-42,2.690047,2.603854,1.770416
16345107,19966,32266,-4892,70,-10,-42,2.690219,2.603996,1.770282
16360732,20182,32340,-4926,79,-10,-46,2.691001,2.604611,1.770103
16376359,20204,32506,-4848,65,15,-55,2.691282,2.604839,1.770014
16391986,20090,32586,-4602,34,44,-57,2.691595,2.605273,1.769021
16407613,19810,32494,-4460,20,37,-46,2.691534,2.605797,1.766825
16423240,19772,32338,-4568,12,22,-53,2.691494,2.606082,1.765689
16438866,19796,32276,-4510,18,3,-54,2.691534,2.606755,1.763610
16454491,20030,32370,-4574,22,-13,-46,2.691654,2.607104,1.762766
16470118,20132,32492,-4472,26,-4,-43,2.691503,2.607507,1.761301
16485750,19934,32532,-4200,38,-2,-28,2.691212,2.607664,1.759943
16501376,19798,32450,-4202,18,-6,-5,2.690860,2.607580,1.759229
16517002,19822,32316,-4368,6,-26,9,2.690370,2.607448,1.758336
16532628,19950,32224,-4620,2,-58,-15,2.689275,2.607014,1.756924
16548253,20104,32310,-4568,3,-63,-20,2.688770,2.606989,1.756111
16563880,20132,32298,-4526,10,-51,-4,2.688538,2.607060,1.755656
16579506,20026,32300,-4524,29,-42,4,2.687592,2.606546,1.754923
16595132,19896,32360,-4452,32,-39,5,2.687151,2.606256,1.754719
16610758,19870,32278,-4556,32,-49,6,2.686464,2.605833,1.754289
16626384,19920,32220,-4580,11,-49,-17,2.686094,2.605666,1.754032
16642010,20054,32358,-4688,-16,-54,-40,2.685895,2.605881,1.753244
16657636,20102,32278,-4548,19,-45,-25,2.685831,2.606154,1.752727
16673262,20016,32134,-4454,37,-43,-25,2.685659,2.606333,1.752073
16688887,19930,32116,-4490,72,-39,-27,2.685633,2.606369,1.751939
16704514,19904,32054,-4578,106,-36,-27,2.685878,2.606510,1.752255
16720141,20014,32146,-4624,93,-33,-49,2.686654,2.606681,1.753404
16735766,20086,32288,-4704,68,-27,-70,2.687698,2.607472,1.753842
16751392,20014,32378,-4690,69,-14,-78,2.688234,2.607841,1.754037
16767019,19818,32370,-4492,52,-22,-90,2.688898,2.608443,1.753979
16782645,19838,32386,-4672,44,-42,-83,2.690419,2.610001,1.753561
16798271,20092,32512,-4788,38,-46,-69,2.691607,2.611220,1.753426
16813898,20126,32508,-4624,44,-30,-58,2.692048,2.611708,1.753346
16829525,20054,32542,-4534,75,-18,-31,2.692504,2.612146,1.753255
16845151,20020,32586,-4702,72,-2,-14,2.692532,2.612102,1.753298
16860778,19792,32590,-4736,50,25,-16,2.692381,2.611795,1.753282
16876404,19708,32572,-4738,47,22,-14,2.692233,2.611678,1.752890
16892030,19744,32518,-4744,36,9,-20,2.692017,2.611581,1.752200
16907656,19900,32536,-4608,41,-1,-26,2.691951,2.611593,1.751810
16923283,19882,32632,-4430,25,6,-24,2.691761,2.611516,1.751320
16938909,19860,32592,-4406,6,14,-12,2.691299,2.611478,1.750029
16954536,19838,32426,-4464,9,10,-4,2.690834,2.611306,1.749180
16970161,19982,32412,-4594,0,8,-4,2.689723,2.610817,1.747646
16985787,20038,32422,-4568,5,16,3,2.689201,2.610528,1.746903
17001412,19970,32348,-4508,5,23,6,2.687851,2.609724,1.745571
17017037,19834,32368,-4210,-9,21,-10,2.687217,2.609352,1.744781
17032664,19666,32490,-4116,11,-3,-5,2.686047,2.608887,1.742908
17048291,19776,32374,-4414,23,-27,7,2.685703,2.608814,1.742249
17063918,19928,32264,-4422,41,-24,5,2.685112,2.608464,1.741714
17079544,19970,32254,-4502,37,-13,-9,2.684420,2.607844,1.741563
17095170,19832,32352,-4312,30,-11,-22,2.684308,2.607761,1.741518
17110796,19788,32460,-4224,31,-24,-34,2.684156,2.607847,1.740840
17126422,19748,32436,-4174,25,-51,-48,2.684282,2.608081,1.740590
17142048,19854,32394,-4338,28,-71,-41,2.684842,2.608851,1.740279
17157675,19900,32330,-4552,6,-67,-40,2.684998,2.609102,1.740232
17173300,19998,32284,-4604,-7,-59,-56,2.685245,2.609669,1.739813
17188926,19978,32380,-4416,21,-46,-58,2.685642,2.610434,1.739278
17204551,19880,32422,-4248,42,-50,-46,2.685920,2.610720,1.739264
17220178,19750,32452,-4304,46,-47,-38,2.686393,2.611224,1.739390
17235804,19722,32488,-4576,64,-45,-30,2.687028,2.611725,1.739646
17251431,19794,32522,-4512,77,-59,-22,2.687330,2.611837,1.740207
17267058,20058,32594,-4636,77,-58,-25,2.687631,2.611949,1.740767
17282684,20026,32767,-4580,66,-31,-23,2.688164,2.612044,1.741848
17298310,19782,32767,-4406,15,-9,-16,2.688246,2.611965,1.742042
17313936,19544,32767,-4228,-13,-10,-14,2.687768,2.611990,1.740855
17329563,19616,32616,-4400,1,-46,-3,2.687240,2.612086,1.739399
17345188,19762,32516,-4498,-7,-44,-2,2.686942,2.612033,1.738997
17360814,19792,32414,-4496,-5,-33,-13,2.686235,2.611852,1.738239
17376440,19862,32564,-4338,-17,-28,-25,2.685963,2.611756,1.737879
17392066,19882,32716,-4216,-11,-24,-11,2.685355,2.611784,1.736579
17407692,19696,32680,-4096,14,-37,19,2.685044,2.611720,1.736030
17423319,19518,32582,-4104,28,-67,36,2.684031,2.611098,1.735527
17438945,19808,32360,-4494,-13,-89,15,2.130229,2.726370,2.391018
17454571,20002,32404,-4540,-32,-82,-7,2.682608,2.610144,1.735354
17470197,20008,32472,-4308,-37,-70,-11,2.681901,2.610059,1.734676
17485822,19866,32452,-4140,-23,-72,-6,2.681485,2.609968,1.734241
17501448,19760,32420,-4198,-13,-82,7,2.680671,2.609790,1.733425
17517075,19638,32306,-4392,-3,-87,6,2.680200,2.609588,1.733188
17532702,19786,32212,-4422,5,-93,-8,2.679808,2.609405,1.733225
17548328,19974,32230,-4538,9,-100,-26,2.679692,2.609426,1.733351
17563955,20050,32384,-4408,32,-93,-29,2.679950,2.609727,1.733962
17579582,19990,32582,-4432,33,-67,-26,2.680298,2.609904,1.734753
17595209,19728,32672,-4466,30,-48,-17,2.680397,2.610043,1.734903
17610835,19624,32520,-4546,45,-61,-1,2.680440,2.610063,1.735159
17626460,19644,32418,-4426,24,-69,-18,2.680617,2.610133,1.735594
17642087,19884,32474,-4492,28,-78,-22,2.680814,2.610412,1.735892
17657713,19972,32626,-4588,42,-71,-13,2.680966,2.610517,1.736193
17673339,19982,32690,-4534,29,-47,-19,2.681074,2.610525,1.736839
17688966,19774,32708,-4444,19,-29,-14,2.681159,2.610651,1.736841
17704592,19610,32728,-4262,11,-41,1,2.680987,2.610632,1.736472
17720219,19688,32588,-4338,8,-57,12,2.680574,2.610539,1.736038
17735845,19776,32552,-4358,-1,-65,-2,2.680225,2.610374,1.735835
17751470,19916,32660,-4362,-32,-61,-26,2.679912,2.610411,1.735457
17767095,19780,32624,-4214,-27,-53,-16,2.679653,2.610507,1.734813
17782722,19688,32510,-4180,-25,-62,-3,2.679079,2.610589,1.733725
17798347,19624,32330,-4126,-10,-77,8,2.678670,2.610486,1.733198
17813972,19706,32304,-4344,24,-101,16,2.677977,2.610213,1.732952
17829598,19902,32346,-4490,45,-102,6,0.589617,-0.359299,-1.389030
17845225,19952,32578,-4518,35,-102,-3,2.677707,2.609689,1.734648
17860851,19944,32648,-4430,21,-89,-4,2.677771,2.609647,1.735615
17876478,19812,32576,-4364,3,-90,1,2.677581,2.609548,1.735795
17892104,19774,32502,-4442,-9,-87,2,2.677145,2.609405,1.735736
17907731,19738,32406,-4470,0,-94,3,2.677027,2.609420,1.735770
17923357,19822,32360,-4622,-7,-99,-5,2.676602,2.609291,1.735859
17938984,19998,32412,-4656,-15,-84,-25,2.676594,2.609390,1.735937
17954610,20046,32446,-4666,-3,-68,-17,2.676415,2.609537,1.735897
17970235,19790,32380,-4484,13,-48,-15,2.676202,2.609472,1.735941
17985861,19714,32394,-4382,13,-52,-29,2.676155,2.609548,1.735763
18001488,19712,32376,-4510,21,-57,-28,2.676298,2.609844,1.735721
18017115,19786,32308,-4538,29,-69,-28,2.676452,2.610092,1.735668
18032750,19912,32328,-4578,31,-74,-44,2.676993,2.610584,1.736137
18048375,19948,32528,-4648,24,-60,-60,2.677328,2.610859,1.736506
18064002,19862,32652,-4464,41,-41,-47,2.678118,2.611618,1.736752
18079628,19638,32590,-4224,49,-45,-43,2.678427,2.611875,1.736920
18095255,19536,32470,-4312,29,-74,-52,2.679190,2.612624,1.737056
18110881,19724,32422,-4574,34,-92,-38,2.680223,2.613720,1.737326
18126507,20038,32500,-4716,37,-90,-48,2.680474,2.613923,1.737759
18142133,20128,32767,-4582,41,-62,-50,2.681258,2.614566,1.738590
18157760,19810,32767,-4402,41,-39,-22,2.681580,2.614829,1.738811
18173387,19548,32688,-4328,21,-37,-19,2.681459,2.614792,1.738778
18189013,19430,32556,-4436,10,-60,-34,2.681602,2.615026,1.738577
18204640,19642,32530,-4718,4,-81,-40,2.682049,2.615758,1.738265
18220266,19998,32628,-4668,5,-50,-43,2.682391,2.616271,1.738315
18235893,19974,32767,-4582,9,-21,-40,2.682435,2.616435,1.738216
18251519,19760,32734,-4578,-4,4,-46,2.682352,2.616662,1.737351
18267145,19448,32592,-4448,-8,0,-57,2.682329,2.616820,1.736718
18282771,19368,32472,-4326,3,-21,-57,2.682839,2.617721,1.735554
18298397,19570,32346,-4512,32,-42,-53,2.683096,2.618188,1.735137
18314023,19996,32436,-4730,68,-35,-46,2.683785,2.618815,1.735324
18329650,20106,32744,-4754,90,2,-43,2.684188,2.618975,1.735913
18345276,19670,32767,-4554,88,37,-34,2.684619,2.618862,1.736916
18360902,19260,32767,-4352,52,36,-36,2.685043,2.618851,1.737188
18376529,19292,32716,-4416,23,2,-48,2.685363,2.619186,1.736850
18392154,19720,32650,-4586,18,-21,-58,2.685860,2.619906,1.736068
18407781,19954,32578,-4802,19,-8,-62,2.686193,2.620299,1.735847
18423406,19956,32406,-4650,50,21,-51,2.686595,2.620761,1.735509
18439032,19778,32554,-4484,63,47,-50,2.686728,2.620751,1.735534
18454658,19556,32688,-4440,77,55,-39,2.687029,2.620830,1.735278
18470285,19664,32688,-4582,103,47,-28,2.687136,2.620810,1.735197
18485910,19832,32668,-4810,68,61,-48,2.687608,2.620723,1.735649
18501535,19846,32767,-4722,28,102,-77,2.687990,2.620877,1.735331
18517162,19668,32756,-4500,24,130,-83,2.688222,2.621215,1.734503
18532789,19528,32688,-4532,22,138,-90,2.688607,2.621896,1.732320
18548415,19656,32570,-4696,28,148,-103,2.688919,2.622298,1.731249
18564041,19794,32710,-4760,33,175,-107,2.689711,2.623271,1.729132
18579667,19870,32714,-4610,46,220,-104,2.690083,2.623751,1.727951
18595293,19810,32700,-4444,58,260,-114,2.690682,2.624381,1.725628
18610919,19614,32760,-4602,61,316,-136,2.691421,2.625261,1.722598
18626545,19504,32708,-4490,66,352,-141,2.691920,2.625801,1.720998
18642171,19426,32750,-4600,84,379,-146,2.693036,2.627047,1.717544
18657798,19478,32767,-4458,130,399,-149,2.693636,2.627602,1.715981
18673424,19524,32767,-4270,156,420,-135,2.695403,2.628822,1.713490
18689050,19398,32767,-4080,147,454,-120,2.696073,2.629240,1.712294
18704677,19152,32767,-3918,108,486,-140,2.696770,2.629696,1.709030
18720304,19132,32767,-3810,75,474,-155,2.697487,2.630929,1.704258
18735930,19472,32767,-3922,40,483,-160,2.697805,2.631604,1.701817
18751557,19344,32767,-3648,6,520,-165,2.697851,2.632905,1.696068
18767183,19148,32767,-3334,28,534,-140,2.697495,2.633412,1.692710
18782808,19080,32767,-3354,49,527,-122,2.696698,2.634283,1.686371
18798433,19160,32767,-3274,73,535,-125,2.696422,2.634682,1.683530
18814060,19092,32767,-3118,117,544,-118,2.695749,2.635202,1.678404
18829687,19096,32767,-2982,144,557,-109,2.695709,2.635520,1.676256
18845312,19032,32767,-2992,137,569,-112,2.695314,2.635831,1.672131
18860939,19068,32767,-3030,104,597,-133,2.695218,2.636148,1.669936
18876566,18930,32767,-2876,88,626,-152,2.694606,2.637025,1.664622
18892192,18860,32767,-2812,93,646,-157,2.694119,2.638402,1.658876
18907819,18708,32767,-2792,101,678,-172,2.693930,2.639163,1.656008
18923446,18760,32767,-2808,136,706,-172,2.693787,2.641052,1.650209
18939072,18732,32767,-2678,170,743,-175,2.693770,2.641878,1.647579
18954698,18736,32767,-2538,204,762,-175,2.694281,2.643817,1.642863
18970324,18578,32767,-2366,219,799,-175,2.694630,2.644727,1.640710
18985950,18298,32767,-1986,234,810,-180,2.695184,2.646677,1.636244
19001576,18140,32767,-1724,253,800,-181,2.696085,2.648938,1.631981
19017203,18290,32767,-1814,231,784,-180,2.696571,2.650109,1.629940
19032829,18354,32767,-1696,197,794,-165,2.696934,2.652275,1.625553
19048455,18158,32767,-1500,183,792,-145,2.696596,2.653219,1.623007
19064082,18002,32767,-1170,155,791,-155,2.695208,2.654776,1.617750
19079709,17870,32767,-1054,120,783,-163,2.693310,2.656991,1.611514
19095334,17752,32767,-984,94,762,-148,2.691852,2.658069,1.608063
19110961,17832,32767,-852,102,736,-137,2.690439,2.659109,1.604749
19126588,17904,32767,-916,116,749,-151,2.687521,2.661081,1.598501
19142215,17822,32767,-1024,151,790,-156,2.684821,2.663193,1.592713
19157841,17438,32767,-666,218,791,-126,2.683890,2.664336,1.590283
19173468,17210,32767,-298,271,759,-103,2.682591,2.666083,1.586664
19189094,17116,32767,20,294,728,-126,2.682430,2.666958,1.585402
19204720,17228,32767,-64,246,695,-153,2.682786,2.669253,1.583174
19220346,17360,32767,-246,179,690,-160,2.682715,2.670635,1.581643
19235972,17296,32767,-234,148,698,-180,2.681557,2.673428,1.577881
19251597,17204,32767,-134,129,698,-203,2.680612,2.675031,1.575600
19267222,17166,32767,-130,112,683,-204,2.678857,2.678617,1.571035
19282849,17194,32767,-202,108,699,-214,2.676783,0.459264,1.566416
19298475,17032,32767,-42,109,719,-228,2.675689,0.457348,1.564091
19314100,16850,32767,40,141,735,-233,2.673376,0.453149,1.559350
19329727,16928,32767,-174,179,767,-248,2.671800,0.448746,1.555433
19345353,16940,32767,-436,239,819,-256,2.671917,0.446371,1.554104
19360978,16932,32767,-506,291,875,-270,2.672181,0.444022,1.553026
19376604,16810,32767,-208,345,923,-290,2.673869,0.439160,1.551710
19392231,16248,32767,104,341,968,-316,2.676608,0.433528,1.550778
19407856,15852,32767,224,279,1006,-319,2.677367,0.430421,1.549872
19423483,15652,32767,374,275,1028,-322,2.676230,0.423988,1.546581
19439110,15652,32767,380,276,1028,-340,2.675501,0.420683,1.544938
19454736,15584,32767,526,226,1036,-370,2.673354,0.413600,1.541475
19470362,15280,32767,810,180,1046,-376,2.671352,0.409867,1.539294
19485989,14834,32767,1154,159,1031,-369,2.664426,0.402250,1.533980
19501615,14582,32767,1502,156,1003,-374,2.660221,0.398249,1.531171
19517241,14610,32767,1598,182,973,-352,2.651142,0.390225,1.525804
19532866,14518,32767,1516,157,966,-333,2.641152,0.383003,1.521229
19548492,14048,32767,1702,121,953,-340,2.635111,0.379509,1.518838
19564118,13740,32767,2144,123,908,-343,2.621119,0.372214,1.513742
19579750,13642,32767,2444,138,849,-334,2.613976,0.368437,1.511354
19595376,13772,32767,2192,103,811,-324,2.599643,0.361206,1.507178
19611003,13774,32767,1962,81,814,-321,2.591270,0.357869,1.504987
19626630,13690,32767,1874,78,804,-334,2.572853,0.351202,1.500604
19642257,13550,32767,2006,91,797,-340,2.563469,0.347821,1.498688
19657883,13412,32767,2108,112,806,-330,2.543886,0.340908,1.495171
19673508,13204,32767,2086,116,817,-317,2.522077,0.334395,1.492177
19689134,12914,32767,2012,113,828,-312,2.509994,0.331303,1.490798
19704760,12756,32767,1824,83,828,-332,2.482706,0.324632,1.487912
19720387,12734,32767,1900,60,839,-360,2.467157,0.321110,1.486386
19736012,12502,32767,2024,80,853,-362,2.431221,0.313701,1.483110
19751638,12438,32767,2056,97,869,-334,2.410870,0.309846,1.481551
19767264,12264,32767,1968,94,902,-310,2.365228,0.303124,1.478980
19782890,11820,32767,1926,79,939,-346,2.306257,0.296410,1.476086
19798515,11712,32767,1974,39,941,-402,2.272086,0.292617,1.474577
19814140,11732,32767,2066,13,974,-416,2.190846,0.283811,1.470879
19829765,11560,32767,2182,23,1021,-382,2.141591,0.279328,1.468737
19845391,11268,32767,2318,42,1048,-357,2.024111,0.271194,1.464653
19861017,10790,32767,2490,70,1078,-369,1.954725,0.267290,1.462724
19876644,10360,32767,2502,21,1068,-414,1.798445,0.258635,1.459371
19892270,10202,32767,2624,-29,1043,-440,1.712640,0.253723,1.457204
19907897,10146,32767,3114,37,1041,-394,1.538898,0.243724,1.452679
19923524,9848,32767,3120,18,1038,-373,1.361128,0.234696,1.449115
19939150,9592,32767,2824,-47,1033,-367,1.276055,0.230413,1.447163
19954776,9186,32767,3002,-45,1010,-394,1.121224,0.221610,1.442613
19970402,8842,32767,3466,-56,941,-427,1.054088,0.216878,1.440550
19986028,8692,32767,3894,-69,882,-401,0.945779,0.207019,1.436195
20001654,8478,32767,3980,-52,832,-317,0.900815,0.202489,1.433943
20017281,8356,32767,3760,-31,788,-257,0.824767,0.195273,1.430120
20032908,8254,32767,3486,52,734,-241,0.790601,0.192350,1.428766
20048535,8044,32767,3736,45,697,-225,0.725404,0.186877,1.427789
20064161,7826,32767,4136,12,643,-211,0.671137,0.181859,1.427075
20079787,7722,32767,4012,7,583,-194,0.649900,0.179606,1.426341
20095413,7912,32767,3570,-16,539,-186,0.613449,0.175471,1.425041
20111040,8090,32767,3200,-14,533,-184,0.598404,0.173655,1.424404
20126667,7986,32767,3316,37,543,-185,0.566740,0.170262,1.423919
20142293,7736,32767,3614,57,529,-189,0.549569,0.168647,1.424268
20157920,7488,32767,4010,77,502,-183,0.518075,0.165133,1.424974
20173545,7476,32767,3356,80,448,-169,0.490147,0.161820,1.425898
20189171,7646,32767,2916,98,449,-162,0.476939,0.160386,1.426651
20204798,7596,32767,2876,163,465,-167,0.446714,0.157739,1.429262
20220423,7366,32767,3016,178,464,-181,0.430067,0.156418,1.431124
20236050,7090,32767,3374,179,452,-180,0.398039,0.153388,1.434970
20251677,6948,32767,3610,180,437,-164,0.383644,0.151778,1.436704
20267303,6798,32767,3564,136,388,-154,0.357580,0.149000,1.439858
20282929,7008,32767,2964,85,358,-165,0.347345,0.147748,1.441003
20298556,7102,32767,2612,81,367,-176,0.330612,0.145177,1.442806
20314182,6890,32767,2980,107,372,-154,0.312675,0.142712,1.445045
20329809,6440,32767,3424,83,367,-125,0.303669,0.141737,1.446177
20345435,6226,32767,3294,20,314,-118,0.289842,0.139852,1.447416
20361062,6308,32767,2882,-5,268,-118,0.285885,0.138947,1.447440
20376688,6444,32767,2900,15,259,-127,0.278741,0.137411,1.447684
20392315,6442,32767,3148,58,253,-125,0.274306,0.136543,1.448170
20407942,6390,32767,3116,61,244,-115,0.264320,0.135184,1.449541
20423569,6334,32767,3004,79,229,-110,0.254465,0.133987,1.451036
20439195,6342,32767,3088,127,217,-99,0.248801,0.133401,1.452078
20454822,6208,32767,2896,134,205,-88,0.235022,0.132657,1.455096
20470448,6326,32767,2556,91,189,-86,0.228412,0.132341,1.456543
20486074,6200,32767,2590,73,183,-97,0.217435,0.131842,1.458885
20501700,6054,32767,3146,81,173,-103,0.212680,0.131429,1.459933
20517326,5836,32767,3268,50,141,-93,0.204561,0.130560,1.461689
20532952,5846,32767,3094,47,109,-70,0.201965,0.130191,1.462142
20548578,6010,32767,2654,88,96,-68,0.195975,0.129948,1.463522
20564204,6212,32767,2330,113,95,-78,0.186149,0.129806,1.466269
20579830,6100,32767,2518,134,92,-63,0.180747,0.129769,1.467820
20595457,5850,32767,2888,143,100,-58,0.168241,0.130007,1.471367
20611083,5672,32767,2982,107,72,-50,0.162894,0.129975,1.472918
20626708,5810,32767,2536,67,38,-45,0.154863,0.130276,1.475127
20642334,5976,32767,2296,7,22,-52,0.152250,0.130453,1.475883
20657961,6048,32767,2388,-1,31,-56,0.149208,0.130769,1.476740
20673587,5912,32767,2614,10,43,-44,0.147706,0.131048,1.477041
20689214,5586,32767,2604,27,20,-46,0.144827,0.131494,1.477658
20704840,5710,32767,2436,49,-6,-36,0.141300,0.131782,1.478713
20720466,5842,32767,2344,81,-4,-19,0.138831,0.131929,1.479567
20736093,5786,32767,2330,69,3,-20,0.131349,0.132981,1.481824
20751718,5734,32767,2606,46,-3,-28,0.127831,0.133395,1.482866
20767344,5658,32767,2690,52,-17,-17,0.123410,0.134173,1.484181
20782970,5728,32767,2570,32,-34,-16,0.121231,0.134546,1.484882
20798597,5844,32767,2354,19,-39,-23,0.118152,0.135409,1.485844
20814224,5876,32767,2218,60,-31,-24,0.114594,0.136239,1.487019
20829850,5910,32767,2210,98,-13,-30,0.111445,0.136720,1.488021
20845476,5878,32767,2146,144,-16,-21,0.103045,0.137354,1.490731
20861102,5860,32767,2142,134,-6,-17,0.097164,0.137842,1.492587
20876729,5692,32767,2394,114,-3,-23,0.087067,0.138668,1.495756
20892355,5590,32767,2400,80,-23,-20,0.083300,0.138866,1.496968
20907981,5630,32767,2044,36,-24,-27,0.078255,0.139450,1.498585
20923607,5862,32767,1894,21,-9,-46,0.076779,0.139653,1.499071
20939232,5846,32767,1884,41,12,-46,0.073672,0.139766,1.500126
20954859,5722,32767,2166,59,42,-34,0.069078,0.140038,1.501480
20970485,5552,32767,2208,79,46,-30,0.066727,0.140194,1.502094
20986112,5656,32767,2084,40,35,-41,0.061725,0.140388,1.503486
21001738,5636,32767,2028,36,25,-35,0.060504,0.140319,1.503841
21017364,5592,32767,2268,44,21,-28,0.057261,0.140457,1.504780
21032990,5500,32767,2376,27,12,-16,0.055957,0.140626,1.505107
21048616,5332,32767,2474,12,-10,-3,0.054482,0.141163,1.505370
21064243,5370,32767,2488,-22,-38,-11,0.054995,0.141694,1.505136
21079869,5558,32767,2276,-77,-78,-8,0.057029,0.141861,1.504529
21095494,5680,32767,2124,-54,-74,-7,0.061816,0.142644,1.503036
21111121,5776,32767,2104,11,-60,-13,0.062908,0.143046,1.502717
21126749,5736,32767,2218,75,-44,-8,0.060650,0.143880,1.503489
21142375,5604,32767,2256,150,-39,4,0.057610,0.144286,1.504450
21158001,5620,32767,2024,147,-38,-1,0.047501,0.145125,1.507656
21173626,5722,32767,2048,104,-38,-6,0.042754,0.145564,1.509175
21189252,5740,32767,2016,64,-40,-2,0.035441,0.146312,1.511470
21204879,5590,32767,2038,-12,-40,-15,-0.759983,-0.075107,0.117870
21220505,5568,32767,2026,0,-51,-11,0.033694,0.147340,1.511964
21236131,5612,32767,2118,4,-47,-11,0.033521,0.147756,1.512107
21251757,5516,32767,2116,8,-48,-7,0.033581,0.148016,1.512102
21267383,5528,32767,2136,0,-51,-10,0.033546,0.148475,1.512174
21283009,5572,32767,2054,0,-52,-12,0.033854,0.148664,1.512125
21298635,5638,32767,2068,9,-51,-9,0.033474,0.149148,1.512327
21314262,5626,32767,2136,9,-49,-10,0.033536,0.149408,1.512323
21329888,5510,32767,2168,57,-50,-2,0.032712,0.149905,1.512639
21345515,5572,32767,2254,54,-60,-2,0.029351,0.150472,1.513758
21361140,5584,32767,2084,23,-70,-6,0.028061,0.150736,1.514196
21376766,5646,32767,1974,13,-61,-7,0.026947,0.151265,1.514662
21392392,5642,32767,1930,21,-51,-6,0.026448,0.151491,1.514857
21408018,5628,32767,1920,30,-50,-3,0.024571,0.152091,1.515477
21423643,5574,32767,2062,21,-46,-8,0.023667,0.152344,1.515790
21439269,5504,32767,2008,8,-53,-9,0.022818,0.152714,1.516120
21454895,5566,32767,2062,-12,-59,-7,0.023534,0.152974,1.516053
21470522,5644,32767,2054,-16,-55,-10,0.024640,0.153249,1.515753
21486148,5582,32767,2174,8,-53,-10,0.025866,0.153656,1.515475
21501774,5586,32767,2124,26,-58,-4,0.025832,0.153742,1.515568
21517400,5520,32767,2082,29,-57,-4,0.024597,0.154259,1.516021
21533025,5540,32767,2026,22,-58,-9,0.023935,0.154439,1.516290
21548650,5602,32767,2098,21,-55,-5,0.023071,0.154643,1.516736
21564277,5576,32767,2100,15,-56,-2,0.022706,0.154912,1.516861
21579904,5636,32767,1994,0,-59,-9,0.022812,0.155266,1.516973
21595531,5658,32767,1976,6,-54,-7,0.023091,0.155539,1.517022
21611157,5576,32767,2122,15,-48,-7,0.023190,0.155794,1.517035
21626784,5456,32767,2192,14,-49,-11,0.023006,0.156081,1.517197
21642409,5526,32767,2120,3,-55,-9,0.022968,0.156166,1.517292
21658036,5498,32767,2224,5,-60,-5,0.023895,0.156346,1.517166
21673663,5622,32767,2118,-5,-63,-7,0.024538,0.156476,1.517081
21689289,5598,32767,2126,2,-62,-7,0.025937,0.156767,1.516833
21704915,5584,32767,2178,24,-61,1,0.025845,0.157188,1.517006
21720541,5644,32767,2026,39,-63,-5,0.025111,0.157353,1.517273
21736168,5660,32767,2016,45,-61,1,0.022920,0.157740,1.518074
21751795,5706,32767,1938,30,-55,-4,0.021790,0.157927,1.518473
21767422,5666,32767,2044,15,-49,-10,0.020279,0.158380,1.518999
21783048,5600,32767,2018,5,-51,-6,0.019967,0.158536,1.519140
21798674,5558,32767,2092,2,-48,-6,0.020859,0.158845,1.518994
21814301,5556,32767,2100,4,-54,-9,0.021481,0.158836,1.518914
21829928,5520,32767,2138,4,-55,-12,0.022496,0.159029,1.518795
21845555,5568,32767,2176,11,-54,-6,0.023304,0.159163,1.518744
21861181,5596,32767,2080,16,-57,-9,0.023431,0.159292,1.518768
21876808,5572,32767,2208,26,-56,-6,0.023635,0.159390,1.518915
21892434,5562,32767,2078,32,-61,0,0.023093,0.159612,1.519117
21908059,5654,32767,2000,21,-57,-4,0.022115,0.159939,1.519546
21923686,5558,32767,2024,29,-58,-6,0.022077,0.160023,1.519643
21939312,5614,32767,1978,30,-57,-5,0.020869,0.160291,1.520140
21954938,5604,32767,1994,28,-54,-9,0.020550,0.160446,1.520282
21970565,5604,32767,1980,33,-49,-11,0.019342,0.160588,1.520787
21986192,5594,32767,2120,17,-50,-6,0.018125,0.160729,1.521293
22001819,5528,32767,2128,-2,-59,-9,0.018709,0.160851,1.521191
22017445,5606,32767,2130,-22,-67,-10,0.020730,0.160880,1.520852
22033071,5654,32767,2136,-22,-63,-10,0.022621,0.160905,1.520480
22048697,5670,32767,2038,1,-59,-9,0.025810,0.161086,1.519822
22064323,5682,32767,2004,27,-49,-11,0.025951,0.161215,1.519847
22079949,5630,32767,2066,55,-46,-9,0.024452,0.161426,1.520399
22095576,5538,32767,2068,46,-49,-9,0.021850,0.161500,1.521275
22111201,5538,32767,2076,18,-52,-13,0.021583,0.161524,1.521439
22126828,5576,32767,2046,-2,-52,-12,0.022047,0.161429,1.521536
22142455,5588,32767,2098,-8,-50,-7,0.022947,0.161479,1.521389
22158082,5544,32767,2048,-29,-52,-10,0.025581,0.161664,1.520826
22173708,5488,32767,2032,-41,-55,-14,0.027724,0.161612,1.520389
22189334,5456,32767,2146,-5,-59,-10,0.032517,0.161501,1.519389
22204961,5582,32767,2098,32,-62,-8,0.033277,0.161507,1.519314
22220588,5758,32767,1994,13,-51,-20,0.032180,0.161530,1.519847
22236215,5686,32767,1946,17,-30,-10,0.032877,0.161522,1.519767
22251842,5578,32767,2016,-9,-26,-4,0.032323,0.161742,1.519971
22267468,5480,32767,2050,-55,-34,-16,0.035127,0.161860,1.519315
22283094,5464,32767,2168,-63,-53,-19,0.038537,0.161712,1.518574
22298720,5610,32767,2158,-56,-54,-20,0.045143,0.161482,1.517151
22314347,5600,32767,2262,-28,-44,-20,0.048840,0.161394,1.516343
22329974,5560,32767,2312,-3,-38,-12,0.052189,0.161323,1.515681
22345599,5426,32767,2266,7,-42,-11,0.054292,0.161353,1.515309
22361226,5470,32767,2290,15,-56,-8,0.054875,0.161301,1.515301
22376853,5542,32767,2218,13,-62,-3,0.055246,0.161399,1.515451
22392480,5552,32767,2166,23,-55,-7,0.055843,0.161472,1.515436
22408106,5590,32767,2212,60,-53,6,0.054679,0.161611,1.515943
22423733,5596,32767,2166,51,-55,3,0.052918,0.161802,1.516459
22439358,5572,32767,2122,37,-56,-8,0.050274,0.161995,1.517329
22454984,5572,32767,2116,30,-58,-5,0.049311,0.162109,1.517672
22470611,5618,32767,2102,15,-59,-4,0.048932,0.162295,1.518001
22486236,5602,32767,2116,0,-54,-3,0.049417,0.162567,1.518061
22501863,5588,32767,2094,-13,-51,-11,0.050701,0.162554,1.517855
22517489,5668,32767,2026,-19,-48,-10,0.053508,0.162570,1.517385
22533115,5656,32767,2030,-24,-37,-12,0.054990,0.162729,1.517101
22548749,5506,32767,2150,-17,-25,-14,0.058194,0.162606,1.516491
22564375,5474,32767,2218,-5,-37,-11,0.059628,0.162644,1.516199
22580001,5464,32767,2182,-18,-40,-12,0.062155,0.162481,1.515787
22595628,5440,32767,2300,-29,-49,-16,0.063963,0.162445,1.515463
22611253,5524,32767,2238,-26,-51,-8,0.068541,0.162187,1.514652
22626880,5522,32767,2296,-21,-48,-10,0.070648,0.162211,1.514261
22642506,5508,32767,2316,13,-58,-2,0.074128,0.162224,1.513664
22658133,5522,32767,2290,35,-56,-1,0.074777,0.162368,1.513744
22673760,5462,32767,2258,70,-58,3,0.073836,0.162481,1.514088
22689387,5500,32767,2238,72,-61,4,0.069416,0.162659,1.515402
22705013,5520,32767,2144,57,-66,0,0.067151,0.162865,1.516052
22720639,5566,32767,2058,52,-62,-3,0.063811,0.163026,1.517127
22736266,5634,32767,2020,41,-54,-5,0.061104,0.163207,1.518013
22751893,5612,32767,2082,22,-48,-6,0.060106,0.163318,1.518358
22767520,5492,32767,2160,9,-50,-5,0.060375,0.163404,1.518490
22783147,5466,32767,2124,-2,-50,-9,0.061025,0.163351,1.518482
22798774,5514,32767,2134,-7,-53,-12,0.063250,0.163333,1.518196
22814400,5530,32767,2218,3,-57,-9,0.064528,0.163271,1.518075
22830027,5524,32767,2280,7,-57,-5,0.066626,0.163332,1.517856
22845652,5536,32767,2278,8,-55,-6,0.067299,0.163279,1.517847
22861277,5508,32767,2154,12,-58,-7,0.068855,0.163346,1.517755
22876903,5540,32767,2230,18,-65,-4,0.069837,0.163353,1.517681
22892528,5616,32767,1990,17,-55,-10,0.069874,0.163466,1.517965
22908155,5586,32767,2112,28,-47,-8,0.069887,0.163452,1.518255
22923781,5506,32767,2122,40,-52,-5,0.069330,0.163544,1.518467
22939407,5510,32767,2178,17,-52,-7,0.068179,0.163563,1.518987
22955034,5474,32767,2238,-3,-53,-10,0.068874,0.163510,1.518979
22970660,5508,32767,2206,-12,-62,-6,0.071873,0.163484,1.518580
22986287,5482,32767,2230,-15,-62,-10,0.073722,0.163529,1.518323
23001913,5512,32767,2174,-3,-60,-10,0.077582,0.163378,1.517835
23017538,5488,32767,2212,26,-60,-3,0.079147,0.163363,1.517642
23033165,5504,32767,2090,40,-57,-5,0.079180,0.163479,1.517913
23048792,5538,32767,2130,38,-57,-5,0.077258,0.163454,1.518631
23064418,5606,32767,2144,29,-55,-3,0.076570,0.163492,1.518929
23080044,5518,32767,2174,17,-56,-4,0.076266,0.163546,1.519266
23095670,5496,32767,2196,0,-61,-4,0.076690,0.163688,1.519301
23111297,5536,32767,2198,-9,-67,-7,0.079551,0.163728,1.518964
23126923,5602,32767,2210,-11,-65,-6,0.083619,0.163704,1.518472
23142548,5554,32767,2142,-1,-56,-6,0.085235,0.163820,1.518262
23158174,5544,32767,2128,18,-57,-5,0.087012,0.163886,1.518171
23173799,5596,32767,2172,22,-55,-6,0.086961,0.163920,1.518342
23189425,5636,32767,2148,24,-51,-9,0.087185,0.163957,1.518547
23205050,5526,32767,2176,20,-49,-6,0.087319,0.164038,1.518648
23220677,5540,32767,2154,20,-55,-4,0.087546,0.164075,1.518852
23236304,5518,32767,2178,3,-58,-3,0.088342,0.164022,1.518844
23251930,5480,32767,2168,-12,-62,-10,0.090521,0.164149,1.518687
23267557,5542,32767,2140,-12,-61,-10,0.092876,0.164133,1.518368
23283184,5588,32767,2094,11,-54,-11,0.096436,0.163994,1.517992
23298811,5620,32767,2098,13,-46,-15,0.097800,0.163952,1.518036
23314436,5600,32767,2188,27,-43,-8,0.098271,0.163969,1.518075
23330062,5556,32767,2190,28,-47,-8,0.097829,0.164014,1.518393
23345689,5450,32767,2348,16,-43,-5,0.097945,0.163969,1.518497
23361315,5440,32767,2300,-10,-57,-4,0.099763,0.163916,1.518395
23376941,5514,32767,2250,-22,-63,-6,0.105594,0.163924,1.517573
23392567,5594,32767,2178,-18,-65,-10,0.107763,0.163973,1.517316
23408194,5592,32767,2152,24,-62,-1,0.109945,0.164021,1.517059
23423821,5552,32767,2182,52,-50,-1,0.110929,0.164127,1.517219
23439447,5504,32767,2202,62,-50,-6,0.107336,0.164221,1.518155
23455073,5488,32767,2184,36,-55,-1,0.105654,0.164222,1.518622
23470699,5522,32767,2102,1,-52,-7,0.105482,0.164273,1.518960
23486325,5566,32767,2094,-3,-48,-8,0.106759,0.164282,1.518886
23501952,5494,32767,2146,6,-50,-1,0.109646,0.164269,1.518601
23517579,5498,32767,2200,6,-54,-6,0.110175,0.164286,1.518640
23533205,5454,32767,2280,-2,-58,-11,0.112980,0.164221,1.518438
23548832,5504,32767,2182,6,-66,-4,0.116024,0.164169,1.518242
23564458,5614,32767,2132,1,-56,-12,0.117433,0.164173,1.518183
23580085,5592,32767,2162,26,-47,-9,0.119743,0.164129,1.518100
23595712,5498,32767,2132,49,-46,-6,0.119193,0.164216,1.518314
23611338,5510,32767,2272,62,-49,-6,0.116393,0.164187,1.519145
23626965,5520,32767,2264,47,-58,-5,0.114841,0.164233,1.519542
23642591,5498,32767,2240,18,-61,-7,0.113594,0.164187,1.520147
23658217,5502,32767,2190,0,-60,-5,0.114226,0.164198,1.520200
23673843,5576,32767,2110,-28,-58,-15,0.118516,0.164241,1.519737
23689469,5578,32767,2130,9,-51,-8,0.123667,0.164146,1.519177
23705095,5554,32767,2210,43,-48,-1,0.124079,0.164114,1.519286
23720722,5508,32767,2154,26,-49,-6,0.122765,0.164239,1.519786
23736348,5472,32767,2184,18,-55,-8,0.122607,0.164256,1.519952
23751974,5492,32767,2156,9,-60,-8,0.125067,0.164212,1.519869
23767600,5476,32767,2242,-2,-57,-7,0.128161,0.164147,1.519667
23783225,5508,32767,2216,-3,-64,-10,0.129978,0.164093,1.519531
23798852,5568,32767,2098,-3,-58,-9,0.132920,0.164075,1.519225
23814478,5598,32767,2140,19,-54,-5,0.136537,0.164073,1.518959
23830103,5532,32767,2290,26,-52,-2,0.137514,0.164168,1.519101
23845730,5464,32767,2190,35,-61,-2,0.137735,0.164122,1.519204
23861355,5508,32767,2148,29,-66,-4,0.137652,0.164245,1.519611
23876980,5560,32767,2202,14,-60,-7,0.137334,0.164213,1.519847
23892606,5556,32767,2206,16,-59,-2,0.140438,0.164373,1.519865
23908232,5578,32767,2140,2,-59,-4,0.142210,0.164431,1.519722
23923859,5612,32767,2124,-6,-64,-6,0.144239,0.164372,1.519599
23939486,5614,32767,2070,9,-50,-7,0.147764,0.164564,1.519382
23955113,5558,32767,2148,14,-46,-9,0.148488,0.164580,1.519421
23970740,5508,32767,2212,10,-47,-9,0.150461,0.164467,1.519382
23986367,5486,32767,2198,-3,-54,-11,0.152663,0.164462,1.519176
24001992,5538,32767,2248,-8,-60,-7,0.157002,0.164399,1.518847
24017619,5544,32767,2152,-17,-53,-12,0.159686,0.164326,1.518591
24033246,5534,32767,2270,-15,-55,-15,0.168767,0.164103,1.517711
24048872,5516,32767,2222,-2,-54,-8,0.171199,0.164224,1.517504
24064498,5522,32767,2222,16,-52,-8,0.172840,0.164109,1.517431
24080125,5528,32767,2266,17,-55,-9,0.174585,0.164136,1.517523
24095752,5492,32767,2336,11,-59,-8,0.175878,0.164084,1.517513
24111378,5514,32767,2250,2,-60,-4,0.179172,0.164090,1.517360
24127004,5494,32767,2170,8,-57,-5,0.181011,0.164101,1.517287
24142630,5494,32767,2170,8,-63,-10,0.183828,0.164122,1.517266
24158256,5602,32767,2150,14,-60,-8,0.186983,0.164025,1.517266
24173882,5604,32767,2196,20,-44,-9,0.187888,0.164041,1.517305
24189509,5474,32767,2318,22,-53,-4,0.187880,0.164057,1.517471
24205134,5498,32767,2292,-7,-59,-13,0.189712,0.164089,1.517550
24220760,5496,32767,2286,-10,-59,-7,0.195093,0.163960,1.517171
24236387,5538,32767,2198,-14,-61,-7,0.198635,0.163953,1.516851
24252012,5542,32767,2208,1,-58,-9,0.204690,0.163888,1.516408
24267638,5512,32767,2182,23,-52,-5,0.205766,0.163898,1.516462
24283264,5532,32767,2238,33,-46,-5,0.206178,0.163949,1.516786
24298890,5508,32767,2224,22,-47,-10,0.206219,0.163964,1.516953
24314515,5488,32767,2312,14,-58,-5,0.208246,0.163996,1.517032
24330141,5572,32767,2274,-12,-59,-10,0.212340,0.163887,1.516898
24345768,5524,32767,2260,-20,-60,-12,0.216081,0.163880,1.516578
24361393,5646,32767,2262,8,-53,-7,0.222645,0.163866,1.516066
24377018,5548,32767,2224,29,-49,-6,0.223736,0.163882,1.516105
24392644,5518,32767,2232,27,-50,-8,0.224295,0.163932,1.516430
24408270,5556,32767,2190,20,-48,-9,0.225502,0.163962,1.516636
24423897,5544,32767,2272,1,-48,-10,0.226508,0.163847,1.516688
24439523,5482,32767,2364,-4,-53,-9,0.229160,0.163796,1.516551
24455149,5480,32767,2220,0,-52,-6,0.234383,0.163856,1.516202
24470774,5426,32767,2254,-5,-60,-11,0.240046,0.163799,1.515872
24486400,5496,32767,2198,10,-59,-5,0.243305,0.163681,1.515684
24502026,5558,32767,2332,29,-54,-4,0.245825,0.163707,1.515777
24517652,5502,32767,2286,24,-54,-5,0.246508,0.163735,1.515949
24533279,5486,32767,2280,21,-53,-7,0.247912,0.163766,1.516155
24548905,5524,32767,2296,17,-57,-7,0.249131,0.163726,1.516277
24564532,5596,32767,2162,7,-56,-12,0.252843,0.163754,1.516243
24580158,5558,32767,2214,23,-52,-5,0.254220,0.163764,1.516296
24595785,5534,32767,2252,14,-52,-5,0.256137,0.163732,1.516438
24611412,5484,32767,2252,7,-53,-15,0.259973,0.163759,1.516404
24627037,5438,32767,2266,10,-57,-10,0.261836,0.163707,1.516393
24642664,5470,32767,2310,-2,-54,-7,0.266134,0.163536,1.516320
24658291,5450,32767,2338,11,-61,-11,0.269176,0.163486,1.516182
24673917,5488,32767,2344,17,-63,-5,0.273744,0.163446,1.516097
24689543,5444,32767,2322,17,-63,-4,0.275972,0.163520,1.516088
24705168,5594,32767,2228,25,-66,-5,0.279663,0.163553,1.516201
24720795,5610,32767,2212,38,-60,-4,0.281044,0.163669,1.516610
24736422,5546,32767,2220,60,-50,-4,0.281134,0.163582,1.516913
24752048,5496,32767,2286,69,-47,2,0.275759,0.163852,1.518024
24767675,5504,32767,2206,47,-53,-4,0.273486,0.163897,1.518556
24783301,5484,32767,2184,15,-55,-6,0.272480,0.163826,1.519138
24798928,5524,32767,2232,-8,-56,-8,0.278697,0.163781,1.518940
24814554,5524,32767,2176,-17,-58,-10,0.282707,0.163714,1.518683
24830180,5566,32767,2226,-12,-51,-9,0.287515,0.163711,1.518363
24845805,5534,32767,2276,11,-48,-5,0.295967,0.163759,1.517769
24861431,5486,32767,2258,5,-51,-10,0.299869,0.163772,1.517729
24877058,5440,32767,2302,7,-55,-11,0.303364,0.163723,1.517591
24892684,5516,32767,2230,7,-58,-10,0.309740,0.163554,1.517390
24908311,5540,32767,2212,24,-57,-10,0.312026,0.163502,1.517379
24923937,5546,32767,2228,31,-57,-11,0.315448,0.163426,1.517608
24939563,5484,32767,2252,23,-56,-6,0.315878,0.163438,1.517774
24955188,5478,32767,2306,14,-64,-6,0.319452,0.163411,1.517935
24970814,5468,32767,2184,-1,-69,-8,3.141593,-0.002183,-0.000728
24986439,5536,32767,2210,6,-60,-11,0.330789,0.163388,1.517683
25002066,5504,32767,2284,35,-64,-3,0.336091,0.163358,1.517731
25017693,5546,32767,2324,65,-63,0,0.336956,0.163444,1.517969
25033320,5462,32767,2378,75,-69,0,0.333054,0.163645,1.519050
25048947,5524,32767,2234,62,-70,6,0.328986,0.163793,1.520199
25064572,5492,32767,2112,40,-68,-1,0.329143,0.163894,1.520556
25080199,5526,32767,2142,29,-69,-3,0.329998,0.163979,1.520794
25095826,5552,32767,2182,45,-59,-5,0.332865,0.163970,1.521222
25111453,5564,32767,2068,49,-63,-5,0.331402,0.164092,1.521992
25127079,5710,32767,2020,32,-54,-8,0.331343,0.164112,1.522292
25142706,5600,32767,2154,13,-44,-10,0.332671,0.164212,1.522683
25158331,5510,32767,2234,-27,-51,-13,0.335289,0.164165,1.522658
25173958,5480,32767,2154,-52,-53,-17,0.350810,0.164075,1.521588
25189584,5502,32767,2180,-46,-51,-19,0.369935,0.163848,1.520154
25205209,5450,32767,2328,-11,-50,-15,0.377878,0.163660,1.519652
25220836,5432,32767,2378,12,-57,-12,0.383088,0.163596,1.519394
25236461,5376,32767,2542,24,-72,-6,0.392081,0.163361,1.519139
25252086,5232,32767,2772,77,-97,22,0.398355,0.163289,1.519387
25267712,5284,32767,2620,59,-135,36,0.398525,0.163634,1.519881
25283339,5558,32767,2294,-55,-138,16,0.411023,0.164318,1.520209
25298965,5628,32767,2148,-61,-135,16,0.428123,0.164560,1.519333
25314591,5616,32767,2028,-10,-120,8,0.454986,0.165206,1.518439
25330218,5636,32767,1948,54,-95,2,0.463432,0.165358,1.518411
25345844,5678,32767,1908,138,-83,5,0.459602,0.165704,1.520034
25361470,5556,32767,2030,160,-72,14,0.471664,-1.357141,0.367948
25377096,5668,32767,1958,58,-73,-11,0.423004,0.166350,1.524800
25392723,5652,32767,2024,-11,-67,-14,0.423582,0.166291,1.525656
25408350,5560,32767,2140,-52,-74,-8,0.432203,0.166226,1.525284
25423975,5546,32767,2226,-79,-76,-17,0.461866,0.166206,1.523701
25439601,5550,32767,2372,-60,-87,-20,0.495563,0.165870,1.521829
25455228,5638,32767,2428,-35,-102,-11,0.510361,0.165869,1.521170
25470854,5632,32767,2514,-28,-102,-8,0.525736,0.165811,1.520593
25486480,5462,32767,2590,2,-122,13,0.554175,0.165956,1.519662
25502106,5418,32767,2492,25,-155,24,0.579976,0.166376,1.519370
25517733,5486,32767,2552,48,-183,28,0.592890,0.166602,1.519564
25533358,5410,32767,2770,58,-201,41,0.619226,0.167324,1.520481
25548985,5428,32767,3004,-2,-255,47,0.637402,0.167870,1.520764
25564611,5048,32767,3304,11,-297,94,0.700791,0.169159,1.520510
25580236,5002,32767,3454,-8,-414,140,0.739455,0.170145,1.520455
25595862,5284,32767,3190,-57,-471,156,0.863020,0.172970,1.519849
25611488,5612,32767,2824,-91,-510,171,0.944932,0.174798,1.519263
25627115,6160,32767,2290,-160,-536,157,1.143429,0.178610,1.517966
25642749,5916,32767,2796,-111,-507,167,1.360003,0.182692,1.516111
25658375,5744,32767,3318,4,-567,182,1.460415,0.184738,1.515795
25674001,5942,32767,3020,58,-588,201,1.673772,0.188980,1.516898
25689627,6082,32767,3186,45,-625,206,1.887315,0.193538,1.519157
25705253,6244,32767,2874,96,-681,221,1.992904,0.196031,1.520469
25720880,6544,32767,2528,35,-691,214,2.097751,0.198646,1.522318
25736506,6922,32767,2154,7,-683,187,2.264618,0.203502,1.524843
25752132,6832,32767,2636,89,-658,204,2.392250,0.208250,1.527703
25767758,6660,32767,3168,174,-694,239,2.449997,0.210811,1.529744
25783384,6580,32767,3156,151,-748,255,2.556769,0.216108,1.534832
25799010,6710,32767,2964,116,-797,283,2.601727,0.218825,1.537215
25814636,6920,32767,2662,82,-857,288,2.672718,0.224808,1.541421
25830262,7366,32767,2498,22,-889,269,2.701603,0.227769,1.543413
25845888,7704,32767,2500,2,-885,269,2.744635,0.233675,1.546641
25861515,7794,32767,2614,-6,-900,280,2.760204,0.236666,1.548004
25877140,7800,32767,2764,-16,-914,296,2.784749,0.242871,1.550651
25892767,7790,32767,2784,-32,-945,324,2.802414,0.249295,1.553061
25908393,7984,32767,2696,-38,-987,341,2.809248,0.252673,1.554212
25924019,8134,32767,2628,-46,-1018,349,2.820620,0.259793,1.556670
25939645,8584,32767,2294,-81,-1037,351,2.829087,0.266975,1.559206
25955270,8938,32767,2106,-102,-1020,361,2.831029,0.270703,1.560158
25970897,9030,32767,2504,-69,-1004,390,2.832816,0.274646,1.561294
25986524,9028,32767,2626,-75,-1025,413,2.835920,0.282954,1.563899
26002151,8956,32767,2698,-148,-1052,430,2.835795,0.287125,1.564888
26017778,9000,32767,3068,-176,-1108,460,2.831702,0.295819,1.565987
26033404,9424,32767,2656,-248,-1161,442,2.825353,0.304707,1.566524
26049030,10106,32767,1950,-344,-1166,398,2.820955,0.308818,1.566247
26064657,10434,32767,2322,-283,-1143,398,2.811472,0.316917,1.565256
26080283,10420,32767,2976,-165,-1169,432,2.807943,0.321158,1.565362
26095910,10510,32767,3046,-117,-1189,457,2.805179,0.330019,1.567819
26111537,10586,32767,3134,-80,-1202,479,2.804367,0.334510,1.569484
26127164,10680,32767,2924,-47,-1242,502,2.803566,2.797626,1.573896
26142790,11402,32767,2270,-109,-1282,486,2.803290,2.788021,1.579295
26158416,11876,32767,1984,-163,-1266,450,2.802302,2.783375,1.581677
26174043,11988,32767,2542,-153,-1262,453,2.799731,2.774691,1.586124
26189669,12090,32767,2754,-173,-1294,467,2.797879,2.770364,1.588232
26205295,12308,32767,2694,-224,-1301,470,2.792738,2.761588,1.591862
26220922,12488,32767,2294,-232,-1296,466,2.789635,2.757350,1.593370
26236548,12766,32767,1922,-235,-1304,451,2.783420,2.748885,1.596505
26252175,13172,32767,1644,-225,-1311,428,2.780944,2.744916,1.598478
26267802,13646,32767,1782,-204,-1304,410,2.776500,2.737305,1.602839
26283429,13782,32767,1902,-210,-1281,429,2.772226,2.729947,1.607571
26299055,13828,32767,1816,-173,-1252,448,2.769520,2.726006,1.609777
26314681,13864,32767,1612,-105,-1246,425,2.764951,2.718291,1.615076
26330306,14158,32767,1288,-31,-1265,396,2.763760,2.714851,1.618503
26345932,14508,32767,970,-8,-1271,386,2.763401,2.708608,1.627294
26361559,14962,32767,816,-14,-1256,388,2.763378,2.705577,1.632062
26377186,15252,32767,1130,-7,-1221,399,2.762418,2.699347,1.641433
26392813,15226,32767,1042,-29,-1176,434,2.761331,2.696090,1.645801
26408440,14898,32767,844,-75,-1145,400,2.757763,2.689308,1.653791
26424066,15006,32767,732,-160,-1172,326,2.754067,2.684022,1.660221
26439693,15554,32767,402,-238,-1206,302,2.752408,2.682283,1.662737
26455320,16244,32767,114,-273,-1188,304,2.747914,2.678796,1.666658
26470947,16410,32767,378,-258,-1139,288,2.745390,2.676899,1.668461
26486572,16398,32767,340,-233,-1114,283,2.740251,2.673240,1.671700
26502198,16160,32767,478,-201,-1086,295,2.737754,2.671380,1.673399
26517824,16076,32767,324,-174,-1097,274,2.733215,2.667915,1.677249
26533450,16566,32767,-96,-152,-1108,248,2.730098,2.665461,1.681902
26549077,17040,32767,-546,-119,-1092,248,2.728728,2.664310,1.684553
26564703,17256,32767,-608,-94,-1044,245,2.726075,2.661695,1.690818
26580329,17178,32767,-530,-80,-1012,231,2.724625,2.660315,1.693837
26595956,17022,32767,-412,-69,-1003,225,2.722210,2.658094,1.699871
26611582,17134,32767,-568,-86,-1000,227,2.720999,2.657130,1.702837
26627208,17310,32767,-816,-100,-976,226,2.718294,2.655224,1.708216
26642834,17466,32767,-1030,-122,-957,206,2.715367,2.653430,1.712998
26658460,17562,32767,-1152,-117,-932,175,2.713963,2.652727,1.715326
26674086,17702,32767,-1110,-110,-927,164,2.711651,2.651808,1.719735
26689712,17746,32767,-1158,-118,-909,167,2.710533,2.651469,1.721781
26705337,17782,32767,-1238,-113,-892,163,2.707886,2.650576,1.725625
26720963,17940,32767,-1382,-109,-879,143,2.706600,2.650142,1.727462
26736590,17916,32767,-1410,-94,-871,122,2.704523,2.649814,1.731225
26752217,18038,32767,-1612,-89,-869,93,2.703640,2.649832,1.733065
26767843,18140,32767,-1746,-77,-853,68,2.702601,2.650546,1.736980
26783469,18318,32767,-1848,-26,-827,70,-1.013001,-0.154070,0.266600
26799095,18416,32767,-2000,-32,-814,66,2.701564,2.651841,1.743780
26814722,18194,32767,-2370,-57,-756,53,2.700749,2.652651,1.748055
26830349,18006,32767,-2320,-73,-696,11,2.700375,2.653234,1.749683
26845976,18304,32767,-2426,-42,-737,-14,2.700519,2.655177,1.752266
26861603,18888,32767,-2678,-45,-755,-32,2.700786,2.656327,1.753959
26877230,18966,32767,-2682,-73,-709,-43,2.701254,2.658675,1.757360
26892856,18920,32767,-2972,-72,-641,-50,2.701334,2.660708,1.759424
26908482,18876,32767,-3090,-15,-582,-33,2.701469,2.661665,1.760539
26924108,18742,32767,-3116,77,-520,32,2.701227,2.662773,1.763506
26939734,18514,32767,-3126,149,-467,83,2.700526,2.662540,1.765542
26955361,18184,32767,-3018,183,-435,69,2.698902,2.661551,1.770472
26970987,17964,32767,-2820,164,-445,49,2.698355,2.661304,1.772924
26986614,18198,32767,-2860,101,-484,58,2.697635,2.661324,1.777223
27002241,18568,32767,-3014,3,-487,57,2.696026,2.661151,1.779539
27017867,18664,32767,-3224,-72,-458,56,2.694997,2.660985,1.779765
27033493,18366,32767,-2890,-99,-428,68,2.693830,2.660748,1.779400
27049119,18126,32767,-2612,-74,-482,77,2.691193,2.660009,1.778216
27064749,18370,32767,-2920,-63,-527,90,2.688824,2.659599,1.777732
27080375,18546,32767,-2906,-52,-540,108,2.687463,2.659239,1.777934
27096002,18554,32767,-2890,-75,-542,121,2.684310,2.658077,1.778761
27111629,18610,32767,-3160,-101,-560,138,2.682569,2.657380,1.778888
27127256,18776,32767,-3540,-82,-567,156,2.678764,2.655794,1.779318
27142882,18640,32767,-3596,-89,-554,142,2.676732,2.654871,1.779905
27158508,18524,32767,-3634,-125,-554,106,2.673139,2.653401,1.780719
27174135,18592,32767,-3776,-142,-559,89,0.616760,-0.965951,1.058946
27189761,18950,32767,-3946,-122,-558,83,2.669158,2.652828,1.780789
27205388,19258,32767,-4136,-116,-530,67,2.666571,2.652412,1.781230
27221014,19310,32767,-4360,-91,-494,79,2.665358,2.652189,1.781450
27236641,19190,32767,-4414,-60,-450,97,2.662446,2.651146,1.782302
27252267,19044,32767,-4496,-35,-418,92,2.659457,2.649796,1.783616
27267893,18868,32767,-4260,-9,-395,81,2.658161,2.649267,1.784297
27283518,18774,32767,-4070,-12,-388,72,2.656974,2.648802,1.785095
27299144,18776,32767,-4066,-51,-410,47,2.655030,2.648288,1.785987
27314771,19106,32767,-4228,-68,-414,44,2.653445,2.648277,1.786255
27330397,19086,32767,-4246,-90,-398,40,2.652536,2.648207,1.786364
27346024,18988,32767,-4262,-121,-379,34,2.650759,2.647958,1.785602
27361651,18860,32767,-4150,-103,-373,40,2.649951,2.647918,1.785070
27377277,18834,32767,-4104,-78,-396,37,2.648363,2.647799,1.784066
27392903,18868,32767,-4252,-79,-415,39,2.647655,2.647849,1.784036
27408528,19142,32767,-4406,-76,-428,41,2.646096,2.647911,1.784099
27424154,19332,32767,-4572,-87,-411,32,2.645259,2.647916,1.784333
27439780,18996,32767,-4330,-91,-379,47,2.643522,2.647769,1.784277
27455406,18754,32767,-4200,-86,-380,61,2.641669,2.647340,1.783776
27471033,18894,32767,-4622,-83,-399,66,2.640678,2.647103,1.783660
27486660,19266,32767,-5220,-65,-391,53,2.638666,2.646665,1.783818
27502286,19292,32767,-5018,-41,-352,26,2.637672,2.646451,1.784376
27517912,18984,32767,-4528,-24,-339,5,2.636292,2.646467,1.785489
27533538,19008,32767,-4646,-25,-345,18,2.635899,2.646689,1.785710
27549165,19320,32767,-5238,-6,-325,39,2.634638,2.646733,1.786509
27564791,19672,32767,-5942,12,-239,35,2.632742,2.646019,1.788025
27580417,19490,32767,-5854,26,-162,16,2.631714,2.645479,1.788812
27596043,19188,32767,-5504,15,-133,-7,2.630460,2.644809,1.789675
27611670,19080,32767,-5252,14,-119,-8,2.629979,2.644572,1.789612
27627296,19198,32767,-5234,12,-107,4,2.629354,2.644273,1.789120
27642923,19320,32767,-5134,33,-83,-7,2.629039,2.644031,1.788814
27658548,19232,32767,-4972,29,-59,-35,2.628406,2.643561,1.788158
27674175,19114,32767,-5066,4,-48,-26,2.628387,2.643548,1.787533
27689802,19096,32767,-5086,-21,-36,-16,2.628235,2.643248,1.785711
27705428,19042,32767,-5052,-18,-48,-26,2.627934,2.642907,1.783568
27721054,19040,32767,-4796,7,-64,-34,2.627949,2.642835,1.782482
27736681,19046,32767,-4572,34,-81,-15,2.627963,2.642927,1.781152
27752307,19122,32767,-4694,4,-71,-5,2.627838,2.642849,1.780711
27767934,19034,32767,-4744,-7,-65,-9,2.627340,2.642371,1.779079
27783560,18950,32767,-4802,-2,-74,-16,2.627143,2.642168,1.778247
27799186,18952,32767,-4748,5,-87,-17,2.626871,2.642012,1.776930
27814813,18982,32767,-4784,10,-98,-19,2.626921,2.642103,1.776330
27830439,19156,32767,-4884,9,-99,-24,2.626788,2.642182,1.775467
27846066,19222,32767,-4918,14,-85,-12,2.626505,2.642053,1.774644
27861693,19070,32767,-4910,12,-65,-1,0.586706,-0.919157,1.094337
27877320,18892,32767,-4848,6,-61,-11,2.625698,2.641360,1.773262
27892947,18896,32767,-4796,16,-81,-14,2.625558,2.641292,1.772716
27908572,19064,32767,-4922,24,-103,-8,2.625393,2.641230,1.772004
27924198,19280,32767,-5132,6,-95,-15,2.625141,2.641111,1.771832
27939824,19350,32767,-5154,-10,-63,-10,2.624644,2.640858,1.771300
27955450,18996,32767,-5016,-8,-31,14,2.623924,2.640085,1.770025
27971077,18760,32767,-4890,-15,-37,3,2.623562,2.639693,1.769164
27986704,18758,32767,-4754,-5,-62,-13,2.623187,2.639277,1.767641
28002330,19036,32767,-4790,21,-87,-11,2.623237,2.639373,1.767077
28017956,19244,32767,-5070,12,-87,-14,2.622964,2.639250,1.766587
28033583,19320,32767,-4946,17,-59,-3,2.622817,2.639203,1.766383
28049208,19074,32767,-4900,30,-39,6,2.622072,2.638492,1.765864
28064834,18880,32767,-4832,21,-43,-9,2.621690,2.638148,1.765570
28080460,18940,32767,-4802,1,-77,-24,2.621582,2.638033,1.764752
28096087,19088,32767,-4860,0,-86,-19,2.621781,2.638309,1.763898
28111712,19184,32767,-4836,-2,-88,-20,2.621725,2.638337,1.763520
28127339,19166,32767,-4960,5,-74,-15,2.621506,2.638329,1.762833
28142965,19050,32767,-4980,7,-59,-11,2.621385,2.638245,1.762394
28158591,18930,32767,-4946,22,-54,-10,2.621067,2.637988,1.761795
28174217,18950,32767,-4878,19,-62,-22,2.620952,2.637918,1.761686
28189842,19034,32767,-4868,2,-71,-33,2.620988,2.638020,1.761134
28205468,19162,32767,-4896,4,-74,-28,2.621117,2.638223,1.760773
28221093,19094,32767,-4866,5,-62,-18,2.621038,2.638254,1.760112
28236718,18906,32767,-4834,-15,-52,-11,2.620901,2.638157,1.759200
28252344,18706,32767,-4744,-14,-59,8,2.620788,2.638056,1.758571
28267971,18756,32767,-4766,5,-90,6,2.620264,2.637629,1.757555
28283598,19018,32767,-5000,15,-111,-6,2.620098,2.637597,1.757400
28299224,19292,32767,-4914,22,-96,-6,2.619846,2.637654,1.757740
28314849,19196,32767,-4920,21,-71,-2,2.619541,2.637413,1.757767
28330474,19022,32767,-4920,21,-56,12,2.618813,2.636874,1.757633
28346101,18796,32767,-4854,23,-65,25,2.617954,2.636109,1.757494
28361728,18884,32767,-4960,-8,-85,1,2.617653,2.635861,1.757369
28377354,19076,32767,-4950,-12,-98,-8,2.617327,2.635780,1.756871
28392980,19202,32767,-4900,-1,-93,-5,2.617183,2.635719,1.756632
28408606,19260,32767,-4884,-5,-83,-11,2.616788,2.635532,1.756226
28424233,19152,32767,-4958,3,-67,-1,2.616560,2.635378,1.755974
28439859,18958,32767,-4968,2,-57,13,2.616035,2.634968,1.755445
28455486,18778,32767,-4822,3,-62,9,2.615615,2.634659,1.755249
28471111,18976,32767,-4988,34,-99,8,2.615355,2.634524,1.754904
28486737,19162,32767,-5044,31,-94,9,2.614767,2.634217,1.755487
28502363,19182,32767,-5042,16,-77,3,2.614408,2.634042,1.755838
28517990,19038,32767,-4860,2,-73,2,2.613861,2.633674,1.755842
28533616,18882,32767,-4816,-7,-81,18,2.613547,2.633427,1.755578
28549242,18890,32767,-4850,-20,-97,14,2.612994,2.633025,1.754921
28564868,19080,32767,-5040,-20,-103,6,2.612730,2.632900,1.754613
28580495,19218,32767,-5134,-11,-99,3,2.612210,2.632645,1.754256
28596120,19328,32767,-5224,-13,-85,1,2.612036,2.632618,1.754256
28611749,19054,32767,-4762,14,-52,11,2.611355,2.632188,1.754051
28627376,18920,32767,-4730,21,-67,0,2.610772,2.631671,1.753760
28643003,18946,32767,-4886,21,-85,-2,2.610743,2.631679,1.753630
28658629,19150,32767,-5052,11,-96,-9,2.610526,2.631690,1.753727
28674255,19344,32767,-5220,-18,-79,-33,2.610431,2.631767,1.753777
28689881,19208,32767,-5044,-21,-53,-37,2.610686,2.632167,1.753206
28705508,19008,32767,-4864,-16,-43,-26,2.610757,2.632241,1.752747
28721135,18778,32767,-4722,-28,-38,-38,2.611185,2.632630,1.751513
28736760,18756,32767,-4902,33,-84,-30,2.611975,2.633376,1.750578
28752387,19086,32767,-5100,43,-99,-29,2.612056,2.633647,1.750831
28768013,19332,32767,-5238,59,-96,-23,2.612227,2.634206,1.751926
28783639,19282,32767,-5190,80,-74,-2,2.611963,2.634132,1.752727
28799266,19092,32767,-4938,52,-53,10,2.611304,2.633776,1.754246
28814892,18764,32767,-4850,22,-52,13,2.610898,2.633472,1.754491
28830519,18568,32767,-4922,-7,-81,6,2.610502,2.633119,1.754181
28846145,18880,32767,-5054,-36,-111,3,2.610506,2.633260,1.753900
28861772,19342,32767,-5342,-21,-107,4,2.610137,2.633187,1.753428
28877399,19420,32767,-5228,-17,-63,2,2.609614,2.632936,1.753368
28893026,19180,32767,-4994,-10,-17,10,2.609215,2.632593,1.753095
28908653,18884,32767,-4784,20,-11,22,2.608535,2.631803,1.752156
28924279,18806,32767,-4774,32,-40,20,2.608201,2.631402,1.751739
28939905,19034,32767,-4922,37,-59,7,2.607625,2.630894,1.751630
28955531,19296,32767,-5076,43,-64,-1,2.607490,2.630848,1.751866
28971157,19408,32767,-5184,35,-47,1,2.607053,2.630573,1.752315
28986784,19228,32767,-4988,19,-16,-4,2.606512,2.630035,1.752265
29002409,18880,32767,-4698,11,-5,1,2.606365,2.629811,1.751861
29018035,18724,32767,-4694,16,-39,10,2.606144,2.629453,1.750924
29033661,18850,32767,-4928,7,-77,-1,2.606038,2.629359,1.750628
29049287,19116,32767,-5076,-7,-91,-21,2.606180,2.629711,1.750575
29064913,19228,32767,-5092,-15,-84,-29,2.606282,2.629932,1.750414
29080538,19122,32767,-4960,-8,-66,-26,2.606503,2.630365,1.750077
29096164,19058,32767,-4830,12,-64,-22,2.606557,2.630464,1.749960
29111790,18968,32767,-4960,12,-61,-21,2.606728,2.630787,1.749704
29127417,18980,32767,-5054,18,-66,-34,2.606924,2.631101,1.749695
29143044,19068,32767,-5046,27,-80,-40,2.607222,2.631499,1.749686
29158671,19220,32767,-5138,35,-80,-34,2.607625,2.632149,1.750139
29174298,19222,32767,-5004,46,-55,-31,2.607750,2.632382,1.750553
29189924,19050,32767,-4834,50,-32,-27,2.607767,2.632554,1.751039
29205550,18848,32767,-4772,38,-30,-14,2.607742,2.632585,1.751122
29221176,18812,32767,-4824,21,-41,-16,2.607920,2.632749,1.750957
29236802,19004,32767,-4974,2,-60,-30,2.608218,2.633126,1.750616
29252428,19308,32767,-5210,0,-53,-27,2.608362,2.633307,1.750357
