elbow_0
Module: 78:21:84:DF:61:54 (01)
t(us),ax,ay,az,gx,gy,gz,y,p,r
1,5248,32767,334,17,-56,-5,0.000220,0.002194,0.021851
15628,5232,32767,264,25,-55,-3,-0.000026,0.011334,0.069115
31254,5268,32767,98,39,-58,-3,-0.000246,0.014377,0.085000
46883,5254,32767,196,48,-57,-2,-0.000596,0.020560,0.116914
62510,5286,32767,120,35,-55,-1,-0.001267,0.026728,0.148870
78135,5290,32767,210,20,-50,-7,-0.001730,0.029748,0.164687
93762,5262,32767,134,7,-54,-6,-0.002416,0.035613,0.195872
109388,5310,32767,134,-9,-55,-9,-0.002891,0.038599,0.211237
125015,5264,32767,208,-1,-56,-10,-0.003851,0.044531,0.241536
140641,5242,32767,232,3,-56,-6,-0.004325,0.047352,0.256714
156267,5232,32767,278,9,-57,-7,-0.005416,0.053077,0.286875
171893,5258,32767,204,24,-53,-5,-0.006022,0.055861,0.301997
187520,5250,32767,246,24,-59,-4,-0.007488,0.061410,0.332311
203146,5230,32767,230,27,-59,-6,-0.009091,0.066784,0.362205
218773,5214,32767,176,33,-62,-4,-0.009909,0.069498,0.377195
234399,5310,32767,198,28,-57,-5,-0.011637,0.074768,0.406783
250026,5338,32767,130,29,-55,-4,-0.012545,0.077317,0.421477
265652,5268,32767,78,19,-49,-10,-0.014469,0.082377,0.450484
281278,5194,32767,142,0,-49,-8,-0.015334,0.084736,0.464774
296904,5218,32767,158,1,-52,-4,-0.017237,0.089325,0.492709
312530,5274,32767,210,-1,-62,-6,-0.018278,0.091554,0.506474
328156,5308,32767,178,1,-61,-3,-0.020269,0.096131,0.533686
343782,5284,32767,230,21,-55,-6,-0.022482,0.100563,0.560692
359409,5232,32767,218,26,-54,-6,-0.023678,0.102704,0.574200
375036,5250,32767,192,18,-51,-5,-0.025886,0.106763,0.600877
390661,5256,32767,198,36,-52,0,-0.028242,0.110551,0.627250
406287,5198,32767,122,28,-59,0,-0.029575,0.112616,0.640313
421913,5288,32767,132,15,-60,-7,-0.030771,0.114513,0.653150
437539,5346,32767,182,14,-62,-8,-0.033182,0.118154,0.678298
453165,5338,32767,112,2,-57,-9,-0.035551,0.121686,0.702899
468791,5198,32767,244,2,-54,-12,-0.036797,0.123402,0.714878
484418,5236,32767,310,4,-57,-7,-0.039091,0.126387,0.738567
500043,5218,32767,306,3,-54,-7,-0.040222,0.127902,0.750104
515668,5270,32767,166,5,-57,-3,-0.042615,0.130815,0.772998
531294,5308,32767,204,9,-59,-9,-0.045183,0.133709,0.795566
546921,5274,32767,268,25,-59,-5,-0.046356,0.135034,0.806714
562547,5272,32767,212,31,-61,-8,-0.047660,0.136385,0.817860
578173,5232,32767,210,25,-56,-6,-0.050216,0.139007,0.839933
593799,5260,32767,150,22,-55,-4,-0.052685,0.141359,0.861234
609425,5306,32767,136,19,-52,-5,-0.053841,0.142386,0.871769
625051,5344,32767,88,7,-51,-10,-0.056427,0.144617,0.892300
640678,5258,32767,144,-2,-54,-12,-0.057579,0.145608,0.902296
656305,5220,32767,234,4,-55,-6,-0.059862,0.147474,0.921792
671931,5188,32767,346,-11,-55,-11,-0.060977,0.148345,0.931237
687557,5218,32767,294,-17,-59,-8,-0.063195,0.150061,0.949588
703183,5284,32767,202,19,-57,-6,-0.064312,0.150912,0.958549
718809,5284,32767,144,26,-56,-8,-0.066623,0.152545,0.976920
734435,5300,32767,180,31,-61,-3,-0.068908,0.154031,0.994967
750061,5206,32767,190,26,-59,-5,-0.070200,0.154872,1.003886
765688,5240,32767,198,11,-57,-4,-0.072538,0.156265,1.021165
781315,5318,32767,120,3,-57,-7,-0.073597,0.156836,1.029479
796942,5260,32767,170,11,-56,-10,-0.075758,0.158051,1.045787
812569,5268,32767,184,4,-61,-10,-0.076817,0.158595,1.053832
828195,5276,32767,214,-6,-64,-12,-0.078805,0.159615,1.069382
843821,5186,32767,316,-4,-58,-7,-0.080791,0.160634,1.084347
859448,5264,32767,220,-3,-58,-6,-0.081771,0.161067,1.091629
875075,5232,32767,174,20,-54,-10,-0.083794,0.162007,1.106039
890701,5324,32767,132,54,-56,2,-0.084749,0.162305,1.113376
906327,5310,32767,208,46,-54,-4,-0.087104,0.163279,1.128360
921954,5252,32767,130,26,-56,-5,-0.089176,0.163988,1.142610
937580,5226,32767,104,5,-54,-2,-0.090280,0.164450,1.149313
953205,5226,32767,76,5,-54,-11,-0.091197,0.164730,1.155940
968831,5252,32767,174,-1,-53,-10,-0.092952,0.165207,1.168704
984457,5184,32767,254,-7,-56,-9,-0.094597,0.165627,1.180998
1000083,5158,32767,326,-19,-57,-13,-0.095421,0.165816,1.186966
1015709,5164,32767,312,-4,-63,-6,-0.096806,0.166089,1.198195
1031336,5328,32767,320,17,-63,-5,-0.097710,0.166379,1.203976
1046962,5358,32767,188,28,-54,-7,-0.099338,0.166746,1.215560
1062589,5284,32767,206,50,-49,-1,-0.101263,0.167193,1.227265
1078216,5202,32767,132,46,-49,-2,-0.102171,0.167301,1.233190
1093842,5248,32767,110,31,-52,-2,-0.103107,0.167522,1.238786
1109467,5282,32767,48,37,-56,1,-0.104846,0.167774,1.249752
1125094,5248,32767,152,20,-59,-5,-0.106640,0.168150,1.260552
1140720,5338,32767,164,-2,-60,-10,-0.107373,0.168218,1.265595
1156346,5294,32767,254,-21,-57,-13,-0.108679,0.168329,1.274971
1171973,5182,32767,312,-22,-57,-13,-0.109352,0.168446,1.279301
1187599,5228,32767,264,-18,-59,-13,-0.110363,0.168339,1.287838
1203225,5208,32767,314,10,-53,-10,-0.110848,0.168282,1.291982
1218852,5178,32767,252,31,-58,-2,-0.112119,0.168245,1.300958
1234477,5260,32767,198,31,-63,-7,-0.113573,0.168371,1.309850
1250103,5330,32767,182,46,-67,-2,-0.114293,0.168443,1.314256
1265730,5288,32767,80,41,-57,-4,-0.115863,0.168630,1.323241
1281356,5140,32767,112,46,-52,-6,-0.116614,0.168666,1.327632
1296983,5224,32767,116,36,-55,-4,-0.117923,0.168565,1.336225
1312610,5244,32767,80,12,-59,-6,-0.118631,0.168616,1.340270
1328237,5252,32767,218,-13,-59,-8,-0.119721,0.168552,1.347729
1343863,5168,32767,338,-26,-56,-6,-0.120194,0.168497,1.351049
1359488,5216,32767,194,-24,-66,-9,-0.121079,0.168440,1.357265
1375115,5302,32767,268,0,-65,-10,-0.121876,0.168292,1.363481
1390741,5286,32767,300,42,-62,-2,-0.122436,0.168311,1.366817
1406368,5294,32767,228,45,-55,-8,-0.123653,0.168273,1.373992
1421995,5230,32767,232,44,-55,-6,-0.124261,0.168249,1.377484
1437622,5212,32767,116,40,-55,-1,-0.125390,0.168128,1.384375
1453248,5306,32767,46,33,-56,-5,-0.126568,0.168089,1.391013
1468882,5290,32767,44,31,-57,-8,-0.127162,0.168080,1.394239
1484509,5222,32767,156,9,-54,-9,-0.127663,0.167990,1.397464
1500135,5204,32767,154,-6,-57,-10,-0.128492,0.167778,1.403205
1515761,5232,32767,150,-28,-61,-11,-0.129081,0.167453,1.408315
1531387,5218,32767,300,-39,-62,-13,-0.129470,0.167454,1.410582
1547013,5222,32767,382,-19,-64,-9,-0.129787,0.167061,1.414811
1562639,5292,32767,310,9,-63,-9,-0.130180,0.167055,1.417078
1578265,5262,32767,260,42,-57,-3,-0.130965,0.166888,1.422112
1593891,5272,32767,142,63,-56,-2,-0.131531,0.166898,1.424898
1609517,5324,32767,74,46,-54,-6,-0.132609,0.166783,1.430719
1625143,5278,32767,86,32,-55,-6,-0.133739,0.166793,1.436103
1640770,5222,32767,96,8,-58,-7,-0.134083,0.166640,1.438616
1656396,5282,32767,70,-7,-56,-12,-0.134737,0.166418,1.443020
1672022,5252,32767,138,-10,-57,-11,-0.134963,0.166242,1.444986
1687648,5204,32767,112,-21,-53,-14,-0.135348,0.165915,1.448678
1703273,5170,32767,294,-17,-53,-13,-0.135603,0.165845,1.450406
1718898,5184,32767,352,-19,-66,-9,-0.135892,0.165456,1.453815
1734525,5216,32767,306,-14,-67,-9,-0.136065,0.165335,1.455359
1750152,5198,32767,272,18,-62,-5,-0.136494,0.165118,1.458720
1765778,5288,32767,260,50,-59,-1,-0.137220,0.164994,1.462687
1781403,5350,32767,160,69,-55,-2,-0.137738,0.165039,1.464863
1797030,5266,32767,162,58,-54,-1,-0.138753,0.164968,1.469617
1812656,5236,32767,72,31,-57,-5,-0.139286,0.165000,1.471778
1828282,5212,32767,156,4,-58,-9,-0.139885,0.164789,1.475470
1843908,5254,32767,218,-6,-59,-8,-0.140324,0.164572,1.478551
1859534,5194,32767,202,-2,-57,-10,-0.140495,0.164445,1.479906
1875160,5206,32767,290,0,-59,-10,3.141573,-0.002296,-0.000764
1890787,5280,32767,274,-5,-63,-10,-0.140881,0.163944,1.484062
1906414,5262,32767,318,-8,-65,-7,-0.141195,0.163709,1.486613
1922040,5260,32767,278,7,-59,-4,-0.141392,0.163670,1.487818
1937667,5204,32767,288,42,-62,-3,-0.141830,0.163489,1.490545
1953293,5252,32767,208,81,-68,2,-0.142231,0.163461,1.492355
1968919,5408,32767,92,94,-64,-1,-0.143197,0.163422,1.496514
1984545,5474,32767,0,75,-53,-2,-0.143776,0.163425,1.498758
2000170,5296,32767,60,36,-42,-3,-0.144881,0.163564,1.502652
2015796,5172,32767,136,-14,-49,-12,-0.145435,0.163418,1.505441
2031422,5266,32767,158,-46,-54,-19,-0.145360,0.163150,1.506342
2047048,5234,32767,288,-41,-48,-17,-0.145145,0.162717,1.507448
2062674,5174,32767,394,-38,-51,-14,-0.145019,0.162493,1.508002
2078300,5196,32767,392,-23,-55,-12,-0.144897,0.162141,1.509112
2093926,5246,32767,284,14,-56,-13,-0.144895,0.161994,1.509755
2109552,5292,32767,228,44,-53,-7,-0.145105,0.161654,1.512011
2125178,5248,32767,180,73,-49,-1,-0.145381,0.161565,1.513455
2140804,5248,32767,156,68,-44,0,-0.146203,0.161502,1.516783
2156431,5218,32767,8,44,-45,2,-0.147060,0.161546,1.519858
2172057,5172,32767,-58,17,-51,-8,-0.147318,0.161495,1.521042
2187682,5144,32767,14,4,-65,-5,-0.147601,0.161248,1.523129
2203308,5182,32767,110,-29,-63,-15,-0.147711,0.161138,1.524050
2218935,5256,32767,266,-40,-61,-15,-0.147478,0.160711,1.524993
2234561,5274,32767,306,-34,-61,-8,-0.147492,0.160580,1.525705
2250187,5314,32767,334,-39,-57,-16,-0.147352,0.160389,1.525997
2265813,5246,32767,346,-8,-64,-7,0.366862,-1.335875,0.549048
2281439,5252,32767,286,41,-59,-7,-0.147307,0.160110,1.527179
2297064,5298,32767,164,64,-58,-7,-0.147719,0.159931,1.529367
2312690,5338,32767,88,67,-54,0,-0.148188,0.160016,1.530748
2328316,5188,32767,94,62,-51,-5,-0.148925,0.160017,1.533384
2343942,5202,32767,16,34,-56,-5,-0.149187,0.159934,1.534654
2359569,5208,32767,36,15,-61,-6,-0.149578,0.159770,1.536669
2375195,5334,32767,92,4,-64,-11,-0.149804,0.159612,1.538076
2390822,5242,32767,164,-25,-60,-13,-0.149874,0.159559,1.538563
2406448,5222,32767,298,-35,-53,-16,-0.149662,0.159254,1.539062
2422074,5090,32767,304,-35,-56,-9,-0.149590,0.159166,1.539185
2437700,5154,32767,224,-32,-69,-13,-0.149266,0.158819,1.539419
2453326,5238,32767,302,-20,-79,-12,-0.149014,0.158561,1.539530
2468951,5272,32767,338,1,-79,-9,-0.148919,0.158354,1.540075
2484577,5346,32767,326,25,-70,-12,-0.149110,0.158379,1.540668
2500203,5312,32767,188,26,-67,-7,-0.149396,0.158303,1.542006
2515829,5300,32767,46,30,-61,-6,-0.149611,0.158281,1.542857
2531455,5278,32767,52,28,-63,-4,-0.150018,0.158240,1.544446
2547082,5200,32767,230,17,-65,3,-0.150462,0.158212,1.546048
2562708,5102,32767,460,5,-59,-6,-0.150713,0.158323,1.546561
2578335,5062,32767,412,-9,-73,-5,-0.150629,0.158088,1.547163
2593961,5270,32767,294,11,-90,-2,-0.150590,0.157990,1.547385
2609588,5300,32767,204,47,-82,-3,-0.150854,0.157949,1.548492
2625214,5206,32767,268,55,-77,-4,-0.151411,0.157950,1.550386
2640840,5192,32767,364,52,-73,-1,-0.151633,0.157920,1.551237
2656466,5250,32767,222,54,-74,5,-0.152175,0.157964,1.552860
2672091,5236,32767,54,59,-67,10,-0.152611,0.158095,1.553824
2687718,5140,32767,170,57,-62,17,-0.153457,0.158364,1.555640
2703344,5040,32767,304,42,-71,12,-0.153950,0.158585,1.556525
2718969,5096,32767,396,48,-87,14,-0.154440,0.158675,1.557804
2734595,5192,32767,276,71,-107,17,-0.154724,0.158750,1.558504
2750222,5270,32767,236,89,-115,18,-0.155684,0.159082,1.560498
2765848,5242,32767,262,102,-130,4,-0.156644,0.159239,1.563015
2781474,5240,32767,230,108,-151,9,-0.157177,0.159293,1.564453
2797101,5312,32767,126,89,-156,9,-0.158268,0.159531,1.567036
2812728,5274,32767,140,84,-152,-3,-0.158690,0.159541,1.568224
2828355,5374,32767,104,99,-153,-1,-0.159548,0.159633,1.570519
2843981,5438,32767,16,133,-155,5,-0.159969,2.981978,1.571793
2859606,5152,32767,562,179,-166,15,-0.161507,2.981654,1.575273
2875232,4948,32767,574,228,-170,2,-0.162452,2.981465,1.577381
2890859,4978,32767,974,99,-222,0,-0.163513,2.981857,1.581395
2906485,5338,32767,254,122,-279,40,-0.163676,2.981962,1.582093
2922111,5608,32767,112,208,-261,41,-0.165590,2.981232,1.585178
2937737,5510,32767,152,195,-250,40,-0.168444,2.980189,1.589859
2953363,5330,32767,-10,235,-269,66,-0.169697,2.979758,1.591925
2968989,5398,32767,-98,318,-270,106,-0.173345,2.978288,1.597421
2984616,5360,32767,-126,353,-275,107,-0.175913,2.977190,1.601052
3000243,5248,32767,-84,310,-310,117,-0.180884,2.975241,1.608460
3015869,5436,32767,-476,284,-355,143,-0.185946,2.972954,1.614825
3031496,5534,32767,-720,298,-358,164,-0.188880,2.971493,1.618107
3047123,5456,32767,-418,321,-409,211,-0.195234,2.968302,1.624952
3062750,5428,32767,-456,342,-446,285,-0.198931,2.966339,1.628605
3078375,5448,32767,-274,305,-476,306,-0.207727,2.961224,1.636002
3094002,5448,32767,-240,262,-529,312,-0.212168,2.958529,1.639309
3109628,5624,32767,-250,226,-596,326,-0.220680,2.953346,1.644995
3125255,5854,32767,-174,212,-649,341,-0.225073,2.950619,1.647530
3140883,6110,32767,-262,191,-688,349,-0.234106,2.945047,1.652541
3156509,6254,32767,-394,164,-722,346,-0.238772,2.942138,1.654845
3172135,6252,32767,-192,159,-764,344,-0.247979,2.936589,1.659296
3187760,6278,32767,-256,150,-820,381,-0.257219,2.931161,1.663581
3203386,6554,32767,-462,138,-881,395,-0.262288,2.928230,1.665862
3219012,6844,32767,-602,120,-911,392,-0.272623,2.922387,1.670298
3234638,6946,32767,-546,159,-932,407,-0.278135,2.919312,1.672577
3250263,7026,32767,-634,194,-963,413,-0.289734,2.913285,1.678069
3265890,7178,32767,-864,197,-996,408,-0.302108,2.907504,1.684517
3281517,7358,32767,-946,211,-1013,408,-0.308502,2.904749,1.687955
3297143,7632,32767,-1110,198,-1018,410,-0.315128,2.901961,1.691538
3312769,7674,32767,-1224,182,-1020,405,-0.328402,2.896484,1.698451
3328395,7832,32767,-1364,189,-1039,409,-0.341877,2.891181,1.705144
3344021,8100,32767,-1462,217,-1059,387,-0.348797,2.888639,1.708574
3359647,8446,32767,-1536,249,-1045,365,-0.363103,2.884089,1.716305
3375274,8648,32767,-1692,295,-1027,352,-0.370412,2.882049,1.720489
3390901,8652,32767,-1682,319,-1001,330,-0.385672,2.878273,1.729566
3406528,8780,32767,-1818,355,-1006,348,-0.393443,2.876478,1.734253
3422155,8988,32767,-2336,414,-1014,352,-0.410294,2.872895,1.744582
3437780,9256,32767,-2200,452,-974,316,-0.428715,2.869569,1.756444
3453406,9334,32767,-2128,424,-975,280,-0.437700,2.868238,1.762328
3469033,9376,32767,-1990,287,-993,234,-0.454540,2.866452,1.772794
3484660,9422,32767,-2196,164,-984,189,-0.461245,2.866170,1.776272
3500287,9392,32767,-2782,198,-909,162,-0.472684,2.866417,1.781339
3515913,9390,32767,-2844,271,-895,164,-0.478464,2.866675,1.784235
3531539,9382,32767,-2706,340,-909,144,-0.491613,2.867229,1.791426
3547166,9450,32767,-2820,420,-931,143,-0.498907,2.867818,1.795831
3562793,9910,32767,-2958,480,-935,141,-0.514974,2.869117,1.805723
3578420,10018,32767,-3186,481,-912,126,-0.533048,2.870279,1.816833
3594046,9830,32767,-3272,430,-868,117,-0.541850,2.870934,1.822028
3609671,9524,32767,-3314,390,-855,117,-0.558158,2.872370,1.831124
3625296,9496,32767,-3576,414,-884,105,-0.565856,2.873355,1.835197
3640922,9704,32767,-3800,409,-906,74,-0.582528,2.875784,1.844047
3656549,9972,32767,-3822,362,-910,59,-0.590733,2.877286,1.848262
3672176,10068,32767,-3910,304,-904,79,-0.606819,2.880345,1.855584
3687803,9882,32767,-3812,244,-889,93,-0.614642,2.881516,1.858595
3703430,9688,32767,-3828,207,-891,66,-0.629559,2.883879,1.863300
3719056,9650,32767,-3850,213,-915,51,-0.643462,2.887028,1.866929
3734681,9722,32767,-3834,228,-961,54,-0.650661,2.888865,1.868775
3750307,9772,32767,-3860,197,-1005,40,-0.666833,2.892674,1.872816
3765934,9774,32767,-3868,134,-1026,25,-0.674933,2.894823,1.874444
3781560,9704,32767,-3942,136,-1030,24,-0.690828,2.899302,1.876507
3797187,9612,32767,-3994,202,-1050,29,-0.699275,2.901570,1.877669
3812813,9600,32767,-4242,250,-1092,37,-0.719025,2.906248,1.881323
3828440,9746,32767,-4394,331,-1144,73,-0.743541,2.910753,1.886877
3844066,9760,32767,-4426,335,-1182,88,-0.757760,2.912831,1.890279
3859692,9724,32767,-4526,252,-1219,91,-0.788162,2.917028,1.896771
3875319,9640,32767,-4810,142,-1237,88,-0.818344,2.921455,1.900663
3890946,9566,32767,-4832,64,-1239,76,-0.832904,2.923857,1.901525
3906572,9406,32767,-4888,42,-1268,45,-0.847790,2.926259,1.901958
3922198,9274,32767,-4948,44,-1312,9,-0.878934,2.932148,1.902498
3937824,9332,32767,-5156,35,-1349,-24,-0.895966,2.935601,1.902867
3953451,9612,32767,-5502,86,-1382,2,-0.932667,2.943017,1.903534
3969078,9732,32767,-5376,259,-1393,47,-0.977372,2.949604,1.906143
3984704,9688,32767,-5494,356,-1406,65,-1.003658,2.952423,1.909177
4000330,9876,32767,-5910,294,-1391,66,-1.060416,2.957834,1.916233
4015957,9804,32767,-6260,174,-1362,60,-1.089010,2.960424,1.918984
4031583,9696,32767,-6430,75,-1333,49,-1.145644,2.965477,1.922115
4047209,9550,32767,-6562,41,-1298,39,-1.173526,2.968119,1.922626
4062836,9500,32767,-6716,58,-1275,33,-1.230573,2.973181,1.923174
4078462,9456,32767,-6760,94,-1251,41,-1.259820,2.975779,1.923523
4094089,9570,32767,-6868,106,-1238,59,-1.320448,2.980481,1.924758
4109715,9748,32767,-6902,103,-1212,69,-1.384013,2.984477,1.926344
4125341,9872,32767,-6986,84,-1166,62,-1.416084,2.986146,1.926892
4140967,9918,32767,-7150,71,-1093,53,-1.477815,2.989126,1.927523
4156594,9914,32767,-7156,94,-1039,58,-1.507691,2.990391,1.927765
4172219,9782,32767,-7092,87,-1022,62,-1.565572,2.992270,1.928286
4187845,9772,32767,-7108,39,-1017,68,-1.594474,2.993229,1.928418
4203471,9888,32767,-7032,-19,-998,73,-1.653024,2.994835,1.927504
4219097,9858,32767,-6914,-97,-915,61,-1.709909,2.995981,1.924648
4234724,9626,32767,-6816,-117,-862,60,-1.737085,2.996294,1.922600
4250351,9554,32767,-6758,-103,-840,71,-1.790527,2.996782,1.918036
4265977,9604,32767,-6592,-44,-836,85,-1.816705,2.996882,1.916020
4281604,9584,32767,-6494,-31,-841,81,-1.869035,2.996611,1.912983
4297231,9518,32767,-6366,-91,-844,82,-1.895312,2.996611,1.911564
4312858,9392,32767,-6250,-148,-839,90,-1.949826,2.996468,1.907208
4328485,9398,32767,-6182,-147,-836,77,-1.977209,2.996288,1.904498
4344111,9312,32767,-6248,-65,-849,51,-2.032133,2.996349,1.899466
4359737,9344,32767,-6250,-6,-881,65,-2.084788,2.996888,1.896409
4375362,9480,32767,-6126,37,-911,83,-2.111068,2.997072,1.895622
4390988,9632,32767,-6188,35,-916,67,-2.162178,2.997353,1.894776
4406614,9708,32767,-6374,-37,-897,45,-2.187282,2.997427,1.894146
4422240,9384,32767,-6348,-73,-865,43,-2.237137,2.997981,1.891713
4437867,8926,32767,-6308,-55,-889,33,-2.261171,2.998268,1.890090
4453493,8858,32767,-6322,-27,-948,13,-2.308082,2.999720,1.887538
4469119,9194,32767,-6318,35,-1010,10,-0.013572,0.003466,1.146399
4484746,9418,32767,-6710,-27,-985,-9,-2.375428,3.003066,1.886192
4500372,9192,32767,-7002,-51,-909,-9,-2.417902,3.005218,1.884507
4515999,8674,32767,-6980,-4,-879,-5,-2.437091,3.006024,1.883576
4531625,8262,32767,-6934,27,-907,-6,-2.471422,3.007988,1.882736
4547251,8176,32767,-7142,3,-915,-13,-2.487877,3.009230,1.882543
4562882,8660,32767,-7418,10,-893,-32,-2.519600,3.011876,1.881854
4578508,9270,32767,-7396,74,-875,-51,-2.533741,3.013092,1.881871
4594134,9728,32767,-7274,97,-822,-36,-2.558925,3.015171,1.882743
4609761,10174,32767,-7066,177,-766,-7,-2.580168,3.015471,1.884401
4625386,10626,32767,-7318,136,-735,-30,-2.589645,3.015360,1.885581
4641012,10734,32767,-7476,31,-641,-34,-2.608581,3.014786,1.886741
4656637,10402,32767,-7288,-46,-567,-22,-2.618407,3.014119,1.886282
4672263,10064,32767,-7318,-70,-522,-6,-2.639071,3.012348,1.883582
4687890,9850,32767,-7510,-48,-470,2,-2.649124,3.011352,1.882040
4703516,9684,32767,-7460,29,-427,27,-2.666534,3.009092,1.879684
4719142,9594,32767,-7582,68,-399,51,-2.673633,3.007664,1.879389
4734768,9104,32767,-7420,39,-328,87,-2.686496,3.004338,1.879179
4750395,8650,32767,-7168,22,-286,91,-2.699477,3.000231,1.878243
4766021,8352,32767,-7062,-6,-277,56,-2.705692,2.998471,1.877404
4781647,8618,32767,-7044,-10,-299,29,-2.718205,2.995905,1.875117
4797273,9070,32767,-6878,-4,-310,17,-2.724365,2.994964,1.873971
4812899,9430,32767,-6748,-21,-272,23,-2.736663,2.992621,1.871719
4828525,9310,32767,-6728,-51,-210,27,-2.743140,2.991150,1.870303
4844151,9084,32767,-6784,-109,-181,-19,-2.755904,2.988093,1.866570
4859777,9048,32767,-6480,-102,-204,-44,-2.768826,2.986222,1.861626
4875403,9130,32767,-6256,-23,-243,-38,-2.774794,2.985507,1.859542
4891030,9230,32767,-6506,49,-255,-39,-2.784829,2.984152,1.856962
4906656,9326,32767,-6814,116,-244,-22,-2.788715,2.983475,1.856458
4922282,9308,32767,-7028,155,-226,-10,-2.793809,2.981651,1.857213
4937909,9220,32767,-6978,150,-197,1,-2.795630,2.980528,1.858087
4953535,8932,32767,-6688,138,-186,2,-2.799389,2.978161,1.859344
4969161,8622,32767,-6478,85,-207,-17,-2.804165,2.976356,1.859626
4984788,8750,32767,-6712,-40,-252,-45,-2.807732,2.975926,1.858978
5000415,9030,32767,-7012,-96,-240,-52,-2.817555,2.975361,1.855891
5016041,9178,32767,-7206,-112,-217,-63,-2.822898,2.975059,1.853992
5031667,9052,32767,-6974,-80,-187,-66,-2.833210,2.974390,1.850159
5047294,8846,32767,-6594,-11,-186,-51,-2.837451,2.973970,1.848601
5062921,8738,32767,-6562,13,-199,-57,-2.844438,2.973074,1.846707
5078546,8818,32767,-6626,-12,-204,-85,-2.847717,2.972791,1.845851
5094172,8878,32767,-6714,-40,-202,-111,-2.854123,2.972942,1.843718
5109798,8958,32767,-6818,-28,-192,-125,-2.857500,2.973092,1.842385
5125424,8854,32767,-6980,52,-179,-133,-2.862753,2.973740,1.840451
5141051,8766,32767,-6876,116,-161,-118,-2.864827,2.974416,1.840234
5156678,8596,32767,-6696,172,-156,-91,-2.864925,2.974469,1.840877
5172304,8572,32767,-6800,155,-159,-88,-2.864192,2.974527,1.842743
5187931,8606,32767,-6954,83,-153,-101,-2.864493,2.974515,1.843356
5203557,8564,32767,-6882,35,-147,-106,-2.866339,2.974709,1.843375
5219183,8516,32767,-6848,-3,-154,-98,-2.870292,2.974897,1.841987
5234809,8420,32767,-6876,-22,-157,-75,-2.872989,2.974932,1.840905
5250436,8546,32767,-6942,-15,-130,-63,-2.878648,2.974431,1.838841
5266061,8456,32767,-6758,2,-125,-53,-2.881152,2.974113,1.837971
5281687,8468,32767,-6858,27,-134,-28,-2.885834,2.973179,1.836565
5297313,8596,32767,-6870,57,-123,-8,-2.888066,2.972548,1.836124
5312940,8568,32767,-7046,101,-118,5,-2.891674,2.970648,1.836144
5328565,8516,32767,-7136,92,-111,21,-2.893063,2.969537,1.836564
5344192,8564,32767,-7204,46,-78,21,-2.896141,2.967167,1.837002
5359817,8458,32767,-7022,34,-56,13,-2.898053,2.966017,1.836796
5375443,8498,32767,-7072,-16,-70,-2,-2.902191,2.963699,1.835952
5391069,8456,32767,-6962,-37,-66,4,-2.907687,2.961800,1.834040
5406695,8482,32767,-6922,-27,-57,7,-2.910680,2.960841,1.832926
5422321,8608,32767,-7192,-31,-33,6,-2.916459,2.958698,1.830799
5437947,8694,32767,-7186,0,-13,18,-2.919063,2.957609,1.829802
5453573,8660,32767,-6956,33,-4,15,-2.923205,2.955014,1.828613
5469198,8526,32767,-6702,41,-6,10,-2.926363,2.952674,1.827754
5484825,8410,32767,-6692,22,-20,18,-2.928138,2.951567,1.827267
5500452,8526,32767,-6800,-11,-25,6,-2.929991,2.950514,1.826697
5516077,8564,32767,-6888,-26,-20,-18,-2.934654,2.948760,1.824751
5531702,8592,32767,-6932,12,-16,-5,-2.938943,2.947255,1.822843
5547329,8510,32767,-6904,55,-2,6,-2.940351,2.946421,1.822382
5562955,8316,32767,-6746,87,-9,10,-2.942127,2.944455,1.822332
5578580,8280,32767,-6648,67,-36,4,-2.942541,2.943658,1.822506
5594205,8450,32767,-6652,5,-54,-12,-2.944668,2.942367,1.822131
5609831,8618,32767,-6734,-41,-55,-25,-2.946611,2.941873,1.821375
5625458,8646,32767,-6840,-55,-44,-32,-2.951447,2.940971,1.819114
5641085,8646,32767,-6854,-11,-34,-15,-2.956096,2.940006,1.816909
5656712,8482,32767,-6750,56,-55,10,-2.957851,2.939314,1.816238
5672339,8466,32767,-6736,73,-77,24,-2.959657,2.937909,1.816421
5687965,8576,32767,-6774,60,-67,26,-2.960627,2.937106,1.816723
5703592,8590,32767,-6836,37,-52,24,-2.962995,2.935383,1.816844
5719218,8534,32767,-6774,0,-46,20,-2.966281,2.933763,1.816118
5734844,8410,32767,-6820,-29,-54,10,-2.968328,2.933036,1.815438
5750471,8490,32767,-6782,-21,-65,16,-2.970443,2.932467,1.814657
5766098,8746,32767,-6884,-38,-58,10,-2.974618,2.931260,1.813277
5781724,8772,32767,-6790,-71,-28,1,-2.979353,2.929862,1.811446
5797350,8516,32767,-6700,-90,-18,-5,-2.982088,2.929235,1.810124
5812976,8356,32767,-6632,-81,-38,-11,-2.987763,2.928264,1.807116
5828603,8360,32767,-6580,-26,-68,-3,-2.990229,2.927921,1.805847
5844229,8496,32767,-6598,57,-101,16,-2.993681,2.927195,1.804728
5859854,8816,32767,-6796,82,-118,18,-2.994334,2.926804,1.805062
5875480,8782,32767,-6664,73,-98,27,-2.995205,2.925611,1.806331
5891105,8594,32767,-6778,53,-94,30,-2.996048,2.924886,1.806696
5906731,8534,32767,-6944,-42,-81,-4,-2.998279,2.923618,1.806901
5922357,8534,32767,-6744,-42,-91,-7,-3.002090,2.923080,1.805495
5937983,8662,32767,-6680,-31,-107,-8,-3.004085,2.922832,1.804815
5953609,8744,32767,-6886,-18,-98,7,-3.007736,2.922327,1.803636
5969235,8878,32767,-7002,19,-71,22,-3.009409,2.921895,1.803276
5984861,8800,32767,-7028,37,-41,14,-3.011650,2.920578,1.803235
6000488,8538,32767,-6842,47,-32,19,-3.012257,2.919959,1.803432
6016114,8394,32767,-6810,50,-45,25,-3.013371,2.918686,1.803810
6031739,8606,32767,-6722,47,-63,18,0.188433,-1.112051,1.123397
6047365,8784,32767,-6756,18,-68,14,-3.015159,2.917227,1.804320
6062992,8772,32767,-6632,-11,-48,8,-3.017563,2.916296,1.803898
6078619,8712,32767,-6664,-28,-30,0,-3.018951,2.915810,1.803469
6094245,8602,32767,-6688,-29,-23,3,-3.022408,2.914980,1.801855
6109872,8506,32767,-6574,2,-47,11,-3.023924,2.914589,1.801170
6125499,8536,32767,-6650,23,-83,23,-3.026270,2.913822,1.800520
6141124,8682,32767,-6602,4,-90,28,-3.027181,2.913455,1.800582
6156750,8816,32767,-6694,-115,-70,3,-3.030544,2.912548,1.799710
6172376,8684,32767,-6700,-181,-49,-14,-3.036805,2.911947,1.796479
6188001,8596,32767,-6560,-162,-51,-11,-3.040546,2.911704,1.794293
6203627,8704,32767,-6686,-71,-76,2,-3.046801,2.911422,1.790729
6219253,8744,32767,-6688,5,-82,23,-3.049988,2.910733,1.789782
6234882,8728,32767,-6652,71,-80,48,-3.050671,2.910128,1.790106
6250509,8704,32767,-6690,105,-66,49,-3.050705,2.909444,1.790912
6266136,8678,32767,-6618,85,-61,26,-3.050328,2.908040,1.792755
6281762,8748,32767,-6668,35,-60,8,-3.050253,2.907630,1.793375
6297389,8758,32767,-6744,-16,-55,-6,-3.051152,2.907112,1.793573
6313015,8690,32767,-6860,-48,-59,-19,-3.053290,2.906830,1.792794
6328642,8746,32767,-6652,-39,-58,-23,-3.054651,2.906775,1.792106
6344267,8712,32767,-6612,-2,-61,-18,-3.056881,2.906849,1.791010
6359893,8842,32767,-6598,29,-55,-5,-3.057450,2.906797,1.790923
6375520,8812,32767,-6704,50,-40,0,-3.058004,2.906422,1.791173
6391147,8686,32767,-6598,50,-41,-2,-3.058123,2.906132,1.791463
6406773,8558,32767,-6602,27,-58,0,-3.058289,2.905703,1.791978
6422399,8666,32767,-6666,-6,-60,-6,0.936193,-2.017200,-2.698084
6438026,8738,32767,-6574,-8,-53,-9,-3.060161,2.905519,1.791584
6453652,8658,32767,-6392,-2,-53,-5,-3.062087,2.905279,1.790840
6469277,8610,32767,-6454,5,-66,8,-3.062905,2.905092,1.790574
6484904,8722,32767,-6482,24,-78,24,-3.064651,2.904585,1.790295
6500530,8684,32767,-6478,21,-89,27,-3.065336,2.904287,1.790390
6516157,8782,32767,-6586,-9,-86,22,-3.067432,2.903469,1.790296
6531783,8700,32767,-6632,-20,-78,14,-3.068592,2.903145,1.790075
6547409,8764,32767,-6556,-13,-84,10,-3.071069,2.902701,1.789379
6563035,8784,32767,-6538,11,-87,13,-3.073153,2.902360,1.788911
6578662,8848,32767,-6616,36,-93,12,-3.073728,2.902142,1.789061
6594287,8910,32767,-6720,23,-79,5,-3.074575,2.901704,1.789543
6609913,8776,32767,-6708,25,-73,-3,-3.074986,2.901559,1.789718
6625539,8720,32767,-6714,3,-69,-12,-3.075763,2.901391,1.789944
6641165,8788,32767,-6848,-6,-60,-16,-3.076383,2.901388,1.789777
6656791,8782,32767,-6718,17,-59,-21,-3.077181,2.901583,1.789552
6672417,8790,32767,-6702,58,-75,-14,-3.077326,2.901608,1.789702
6688043,8942,32767,-6672,75,-69,-6,-3.076716,2.901593,1.790761
6703669,8960,32767,-6740,57,-51,-14,-3.076054,2.901398,1.791934
6719294,8864,32767,-6682,31,-29,-13,-3.075749,2.901337,1.792330
6734920,8718,32767,-6618,6,-14,-19,-3.076014,2.901151,1.792458
6750545,8642,32767,-6620,-15,-20,-25,-3.076643,2.901051,1.792116
6766172,8494,32767,-6602,-28,-33,-21,-3.077968,2.901333,1.791081
6781799,8544,32767,-6520,-8,-56,-13,-3.078870,2.901365,1.790526
6797425,8668,32767,-6566,4,-58,-13,-3.080025,2.901627,1.789933
6813050,8800,32767,-6576,40,-50,-1,-3.080698,2.901616,1.789896
6828675,8826,32767,-6580,39,-54,-5,-3.080901,2.901406,1.790100
6844302,8834,32767,-6544,55,-54,4,-3.081152,2.901145,1.790544
6859929,8764,32767,-6620,62,-66,5,-3.080904,2.900743,1.791515
6875556,8748,32767,-6656,30,-58,0,-3.080912,2.900695,1.791823
6891181,8678,32767,-6674,-2,-60,-14,-3.081151,2.900641,1.791921
6906808,8686,32767,-6594,-47,-79,-27,-3.082552,2.900733,1.791354
6922434,8854,32767,-6752,-44,-78,-19,-3.083689,2.901011,1.790657
6938061,8886,32767,-6692,14,-56,-9,-3.085753,2.901180,1.789634
6953688,8788,32767,-6738,42,-40,-8,-3.086362,2.900971,1.789815
6969314,8700,32767,-6702,66,-45,0,-3.086231,2.900882,1.790075
6984941,8676,32767,-6576,59,-50,-2,-3.085824,2.900571,1.790969
7000566,8726,32767,-6686,33,-46,-13,-3.085440,2.900620,1.791408
7016192,8782,32767,-6664,7,-35,-20,-3.085734,2.900574,1.791535
7031817,8790,32767,-6642,10,-39,-19,-3.086098,2.900609,1.791372
7047443,8824,32767,-6576,6,-56,-20,-3.086825,2.900679,1.791047
7063069,8894,32767,-6448,-1,-57,-8,-3.087246,2.900722,1.790912
7078696,8864,32767,-6590,-1,-50,11,-3.088843,2.900504,1.790375
7094322,8662,32767,-6604,17,-58,23,-3.090567,2.899900,1.789962
7109949,8594,32767,-6652,29,-70,17,-3.091134,2.899569,1.790044
7125575,8622,32767,-6626,36,-77,17,-3.091831,2.899250,1.790381
7141201,8630,32767,-6636,26,-87,22,-3.092160,2.899084,1.790634
7156828,8638,32767,-6730,8,-82,15,-3.093140,2.898750,1.790892
7172453,8658,32767,-6736,0,-79,5,-3.093807,2.898608,1.790888
7188080,8704,32767,-6714,-20,-73,-8,-3.095185,2.898534,1.790560
7203706,8780,32767,-6660,-5,-83,-5,-3.096660,2.898664,1.790041
7219331,8860,32767,-6766,2,-73,-8,-3.097294,2.898667,1.789902
7234957,8938,32767,-6688,22,-59,-11,-3.098125,2.898747,1.789831
7250584,8870,32767,-6708,41,-66,-3,-3.098277,2.898644,1.790013
7266210,8926,32767,-6750,37,-60,-7,-3.098328,2.898577,1.790557
7281836,8892,32767,-6720,46,-45,-9,-3.098353,2.898401,1.790899
7297463,8852,32767,-6660,39,-43,-9,-3.098207,2.898243,1.791478
7313089,8762,32767,-6698,10,-35,-14,-3.098206,2.898214,1.791685
7328716,8592,32767,-6538,10,-44,-16,-3.099006,2.898201,1.791309
7344341,8648,32767,-6530,24,-61,-2,-3.099454,2.898408,1.791161
7359967,8840,32767,-6660,45,-69,10,-3.099785,2.898385,1.791213
7375593,9014,32767,-6786,43,-63,1,-3.099960,2.898094,1.791841
7391221,8932,32767,-6612,27,-46,-11,-3.100209,2.897896,1.792077
7406848,8652,32767,-6536,34,-50,1,-3.100511,2.897707,1.792341
7422474,8584,32767,-6564,40,-62,-1,-3.100786,2.897676,1.792365
7438100,8596,32767,-6728,47,-80,-18,-3.100659,2.897817,1.792900
7453726,8876,32767,-6902,31,-77,-18,-3.100435,2.898082,1.793175
7469352,8912,32767,-6806,58,-58,-10,-3.100236,2.898443,1.793754
7484978,8858,32767,-6742,60,-38,-21,-3.099517,2.898409,1.794769
7500604,8660,32767,-6668,41,-28,-26,-3.099349,2.898427,1.795007
7516230,8576,32767,-6758,8,-40,-25,-3.098923,2.898758,1.795277
7531857,8620,32767,-6782,-16,-57,-29,-3.099144,2.899018,1.795028
7547483,8816,32767,-6818,-15,-63,-35,-3.100149,2.899546,1.794261
7563109,8972,32767,-6824,-6,-50,-30,-3.100589,2.899767,1.794008
7578735,8834,32767,-6730,17,-28,-16,-3.101203,2.900068,1.793623
7594361,8626,32767,-6596,42,-34,-4,-3.101520,2.899935,1.793672
7609987,8626,32767,-6604,37,-45,-1,-3.101600,2.899798,1.793836
7625614,8722,32767,-6796,10,-54,-10,-3.101941,2.899804,1.793880
7641239,8740,32767,-6834,-19,-48,-18,-3.102283,2.899823,1.793820
7656865,8644,32767,-6658,-13,-50,-18,-3.103631,2.899942,1.793073
7672491,8568,32767,-6592,-11,-62,-14,-3.104260,2.899999,1.792719
7688118,8618,32767,-6524,15,-79,-2,-3.105302,2.900236,1.792223
7703745,8824,32767,-6708,34,-86,-2,-3.105741,2.900271,1.792218
7719372,8938,32767,-6906,25,-74,-6,-3.106121,2.900230,1.792701
7734998,8768,32767,-6770,36,-56,3,-3.106629,2.899991,1.793065
7750624,8624,32767,-6786,56,-51,5,-3.106654,2.899820,1.793408
7766251,8638,32767,-6760,58,-52,5,-3.106442,2.899607,1.794177
7781882,8682,32767,-6692,34,-59,2,-3.106222,2.899592,1.794593
7797509,8678,32767,-6644,9,-53,-3,-3.106583,2.899441,1.794877
7813135,8834,32767,-6762,-27,-53,-11,-3.107214,2.899327,1.794669
7828761,8844,32767,-6908,-64,-43,-21,-3.109137,2.899373,1.793471
7844388,8708,32767,-6758,-40,-34,-18,-3.110439,2.899362,1.792627
7860014,8598,32767,-6676,5,-37,-10,-3.112261,2.899514,1.791272
7875641,8690,32767,-6598,54,-55,5,-3.112885,2.899386,1.791168
7891267,8806,32767,-6636,67,-63,8,-3.112662,2.899371,1.791584
7906893,8936,32767,-6786,52,-48,0,-3.112521,2.898912,1.792517
7922519,8828,32767,-6928,19,-35,-16,-3.112397,2.898816,1.792884
7938146,8642,32767,-6674,-12,-34,-34,-3.112777,2.898856,1.792748
7953772,8578,32767,-6668,-15,-46,-44,-3.113196,2.899088,1.792390
7969399,8720,32767,-6812,5,-53,-46,-3.113448,2.899957,1.791765
7985025,8760,32767,-6868,60,-54,-42,-3.113128,2.900628,1.791829
8000650,8832,32767,-7036,110,-45,-35,-3.112419,2.900925,1.792388
8016277,8804,32767,-6992,174,-26,-19,-3.109444,2.901215,1.794791
8031904,8838,32767,-7060,204,-28,-14,-3.107538,2.901110,1.796505
8047531,8936,32767,-7076,162,-9,-21,-3.103038,2.900954,1.800328
8063158,8912,32767,-6952,101,17,-32,-3.101320,2.900979,1.801695
8078784,8784,32767,-7046,15,40,-47,-3.099772,2.900849,1.802662
8094410,8630,32767,-7094,-46,45,-56,-3.099754,2.901054,1.802205
8110036,8604,32767,-7094,-54,37,-60,-3.101390,2.901879,1.799344
8125662,8642,32767,-6990,-36,32,-58,-3.101732,2.902284,1.798512
8141288,8842,32767,-6970,-5,42,-45,-3.102252,2.902485,1.797693
8156914,8864,32767,-6864,37,69,-28,-3.102467,2.902550,1.796866
8172540,8798,32767,-7096,61,93,-24,-3.102109,2.902404,1.796831
8188167,8696,32767,-7254,62,113,-25,-3.101057,2.901796,1.797068
8203793,8574,32767,-7292,83,110,-13,-3.100236,2.901547,1.797356
8219420,8648,32767,-7256,93,106,-4,-3.098421,2.900797,1.798208
8235045,8852,32767,-7096,76,126,7,-3.097346,2.900405,1.798813
8250671,9044,32767,-7474,36,166,3,-3.096246,2.899201,1.799341
8266298,9186,32767,-7870,-9,227,-5,-3.095961,2.897813,1.798832
8281924,9126,32767,-7882,2,279,-6,-3.096139,2.896919,1.798226
8297550,9024,32767,-7780,45,329,0,-3.095699,2.895020,1.797217
8313175,9018,32767,-7860,92,371,13,-3.094835,2.893911,1.797019
8328801,9174,32767,-7898,97,422,11,-3.091994,2.891401,1.797342
8344427,9280,32767,-7968,60,488,-11,-3.090470,2.890024,1.797328
8360053,9268,32767,-7940,1,566,-52,-3.087875,2.887526,1.796051
8375679,9188,32767,-7862,-43,648,-94,-3.085867,2.885649,1.792792
8391305,9084,32767,-7816,-73,700,-118,-3.084685,2.885065,1.790696
8406932,9004,32767,-7662,-83,747,-131,-3.082771,2.884036,1.785642
8422558,8870,32767,-7432,-61,780,-134,-3.081680,2.883672,1.782854
8438184,8770,32767,-7334,-4,802,-126,-3.078302,2.882929,1.777766
8453811,8840,32767,-7498,62,827,-113,-3.075517,2.882570,1.775815
8469437,8994,32767,-7326,119,857,-119,-3.067732,2.881409,1.773105
8485064,9070,32767,-7252,148,868,-140,-3.062413,2.880905,1.772329
8500690,8968,32767,-7200,84,910,-139,-3.050661,2.879976,1.770872
8516317,8744,32767,-7056,48,950,-147,-3.040456,2.879094,1.767741
8531943,8816,32767,-7318,25,969,-188,-3.035280,2.878827,1.765770
8547569,9006,32767,-7512,5,994,-230,-3.024032,2.879138,1.761355
8563196,9042,32767,-7220,18,1004,-239,-3.017722,2.879635,1.759071
8578823,9118,32767,-7330,21,1021,-224,-3.004035,2.880558,1.754674
8594450,9190,32767,-7672,31,1086,-218,-2.996577,2.880909,1.752471
8610077,9174,32767,-7888,111,1157,-217,-2.978432,2.881032,1.748686
8625703,9118,32767,-8150,235,1262,-220,-2.950334,2.880882,1.747210
8641328,8826,32767,-8072,284,1320,-210,-2.931712,2.880750,1.747307
8656954,8596,32767,-8160,270,1358,-198,-2.888068,2.880226,1.747917
8672580,8314,32767,-8020,194,1403,-224,-2.864162,2.880017,1.747846
8688206,8280,32767,-8026,132,1423,-267,-2.813405,2.880211,1.745908
8703833,8380,32767,-7836,77,1452,-294,-2.786041,2.880777,1.744183
8719460,8256,32767,-7588,8,1487,-306,-2.726713,2.882266,1.739218
8735087,8112,32767,-7576,-63,1507,-291,-2.659771,2.883960,1.732095
8750712,7900,32767,-7162,-28,1507,-260,-2.621786,2.884604,1.728267
8766338,8228,32767,-7244,-56,1474,-275,-2.527646,2.886069,1.721378
8781964,8676,32767,-6858,-78,1490,-265,-2.472984,2.886923,1.717573
8797590,8784,32767,-6722,-105,1503,-275,-2.340927,2.888064,1.709645
8813216,8422,32767,-6810,-231,1525,-286,-2.260520,2.888831,1.705210
8828842,7900,32767,-6768,-279,1516,-255,-2.068964,2.890628,1.693961
8844468,7706,32767,-6382,-195,1470,-232,-1.951817,2.891624,1.688308
8860094,8126,32767,-6308,-127,1420,-256,-1.683417,2.893816,1.679153
8875721,8590,32767,-6198,-113,1413,-285,-1.540771,2.895167,1.675302
8891347,8508,32767,-6474,-166,1429,-248,-1.265914,2.897999,1.667956
8906973,8174,32767,-6452,-202,1420,-212,-1.027810,2.899905,1.659957
8922599,8140,32767,-6128,-190,1398,-216,-0.925941,2.900835,1.655685
8938225,8510,32767,-6084,-178,1403,-255,-0.763118,2.903119,1.647836
8953850,9010,32767,-6310,-220,1463,-300,-0.696598,2.904588,1.643975
8969476,9044,32767,-6322,-299,1530,-343,-0.578798,2.908082,1.635098
8985101,8362,32767,-6298,-311,1557,-383,-0.526606,2.910311,1.630054
9000727,7852,32767,-6692,-324,1540,-387,-0.438217,2.915848,1.619893
9016353,7770,32767,-6496,-169,1547,-297,-0.374189,2.921683,1.611314
9031980,7916,32767,-6040,42,1566,-251,-0.353602,2.923988,1.608780
9047607,7672,32767,-5798,138,1585,-239,-0.330597,2.927439,1.607507
9063233,7276,32767,-6004,46,1542,-211,-0.322129,2.929055,1.607417
9078860,7374,32767,-5870,-123,1479,-161,-0.303374,2.931900,1.605460
9094487,7682,32767,-5106,-295,1444,-166,-0.277588,2.933871,1.599035
9110113,7726,32767,-4936,-577,1424,-174,-0.260141,2.935094,1.593351
9125739,7602,32767,-4780,-871,1396,-155,-0.239219,2.936199,1.585534
9141366,7448,32767,-4604,-1080,1316,-158,-0.189772,0.203038,1.564617
9156993,7560,32767,-3918,-1166,1235,-136,-0.137355,0.199977,1.539776
9172619,7690,32767,-3704,-1169,1183,-113,-0.113035,0.198556,1.527265
9188246,7950,32767,-3528,-1103,1139,-84,-0.069456,0.195908,1.502934
9203872,8072,32767,-3352,-951,1115,-70,-0.051521,0.194831,1.491898
9219499,8000,32767,-2914,-810,1107,-75,-0.024656,0.192794,1.473477
9235125,7990,32767,-2728,-712,1087,-67,-0.014829,0.191687,1.465872
9250751,8122,32767,-2572,-657,1065,-54,0.000466,0.189409,1.452608
9266378,8280,32767,-2626,-655,1052,-85,0.006517,0.188317,1.446686
9282004,8184,32767,-2190,-723,1053,-135,0.018617,0.185452,1.434790
9297630,7944,32767,-1898,-574,1056,-113,0.031168,0.181595,1.422566
9313256,7828,32767,-1728,-446,1032,-116,0.034753,0.179751,1.418050
9328882,7732,32767,-1518,-336,998,-111,0.038361,0.175887,1.411571
9344507,7396,32767,-1442,-199,966,-76,0.038321,0.174060,1.409722
9360132,7148,32767,-1212,-148,929,-73,0.034551,0.170850,1.408732
9375759,7082,32767,-756,-183,868,-85,0.032335,0.169267,1.408719
9391385,6954,32767,-590,-362,807,-90,0.030525,0.166025,1.407193
9407011,7066,32767,-826,-702,663,-100,0.036800,0.162926,1.399571
9422638,7120,32767,-784,-828,601,-132,0.042446,0.161481,1.393785
9438264,7216,32767,-604,-862,558,-140,0.056127,0.158169,1.380602
9453891,7296,32767,-436,-838,538,-147,0.069631,0.154994,1.367403
9469518,7348,32767,-394,-732,528,-141,0.075623,0.153257,1.361543
9485144,7304,32767,-382,-568,527,-114,0.080144,0.151813,1.356687
9500770,7164,32767,-174,-422,509,-108,0.084550,0.149439,1.350656
9516396,7116,32767,-86,-324,496,-129,0.085059,0.148265,1.349278
9532023,7022,32767,192,-243,503,-114,0.084672,0.145568,1.348209
9547649,6904,32767,-152,-256,473,-130,0.083093,0.142953,1.348320
9563276,6854,32767,0,-270,441,-137,0.082602,0.141504,1.348379
9578902,6734,32767,524,-254,408,-131,0.081553,0.138973,1.348500
9594529,6630,32767,916,-291,373,-135,0.081382,0.137677,1.348461
9610155,6684,32767,754,-364,340,-133,0.082266,0.135282,1.347171
9625781,6900,32767,398,-364,329,-134,0.083310,0.134179,1.345920
9641407,6898,32767,480,-287,345,-131,0.084448,0.132221,1.344294
9657034,6610,32767,828,-204,356,-124,0.084134,0.131250,1.344315
9672661,6290,32767,796,-196,316,-136,0.082325,0.129409,1.345440
9688287,6382,32767,614,-170,268,-146,0.081111,0.127124,1.346900
9703914,6550,32767,650,-171,266,-166,0.080404,0.125952,1.347997
9719540,6366,32767,628,-134,258,-145,0.078938,0.123721,1.350162
9735166,6212,32767,802,-49,255,-133,0.077509,0.122803,1.351837
9750793,5988,32767,1140,-6,238,-105,0.073468,0.121043,1.356413
9766419,6054,32767,768,-4,207,-76,0.070800,0.120624,1.359020
9782045,6054,32767,778,-97,187,-93,0.066007,0.119977,1.363749
9797671,5900,32767,1362,-103,127,-77,0.064367,0.119642,1.365375
9813298,6042,32767,998,-164,74,-95,0.061621,0.119313,1.368006
9828924,6116,32767,996,-162,63,-90,0.060284,0.118991,1.369648
9844551,6146,32767,878,-86,55,-66,0.059164,0.119124,1.370709
9860177,6234,32767,698,-49,71,-63,0.055507,0.119624,1.374144
9875804,6276,32767,654,25,81,-64,0.053090,0.119926,1.376404
9891430,6088,32767,894,99,66,-67,0.046753,0.120541,1.382568
9907057,6048,32767,926,98,54,-72,0.043351,0.120750,1.386082
9922683,6124,32767,582,52,68,-84,0.037106,0.120945,1.392742
9938309,6162,32767,396,80,76,-81,0.031540,0.121012,1.398704
9953936,6048,32767,394,133,81,-77,0.028381,0.121090,1.402056
9969562,5808,32767,614,140,80,-85,0.021326,0.121183,1.409600
9985188,5752,32767,836,119,68,-82,0.018139,0.121084,1.413164
10000814,5754,32767,810,61,43,-63,0.012450,0.120899,1.419575
10016440,5848,32767,684,-23,14,-56,0.010225,0.121014,1.421940
10032066,5946,32767,260,-27,11,-57,0.006621,0.121546,1.425486
10047693,5960,32767,356,-7,20,-59,0.004833,0.121823,1.427263
10063319,5796,32767,510,-36,21,-50,0.000764,0.122494,1.431140
10078945,5718,32767,502,-59,19,-56,-0.002327,0.122934,1.434180
10094571,5726,32767,444,-73,5,-80,-0.003569,0.123129,1.435380
10110196,5876,32767,442,-70,-4,-93,-0.005395,0.123054,1.437690
10125822,6038,32767,452,-28,16,-89,-0.006065,0.122870,1.438752
10141449,5898,32767,524,76,51,-69,-0.009103,0.122868,1.442189
10157075,5666,32767,620,133,57,-60,-0.011848,0.123094,1.444949
10172701,5474,32767,566,108,49,-61,-0.017343,0.123223,1.450804
10188328,5606,32767,550,33,35,-72,2.787341,3.135699,3.109781
10203954,5750,32767,536,-47,31,-94,-0.023023,0.123030,1.457305
10219580,5770,32767,444,-50,17,-84,-0.024303,0.122573,1.459260
10235205,5616,32767,566,7,32,-63,-0.025286,0.122643,1.460314
10250832,5398,32767,804,32,40,-45,-0.028184,0.122752,1.463399
10266459,5278,32767,924,60,26,-37,-0.029917,0.122918,1.465119
10282085,5410,32767,784,50,3,-38,-0.033430,0.123199,1.468747
10297712,5608,32767,504,17,1,-50,-0.035095,0.123423,1.470405
10313338,5700,32767,330,25,27,-65,-0.038036,0.123805,1.473344
10328965,5426,32767,642,107,34,-36,-0.041155,0.123914,1.476708
10344591,5144,32767,666,176,7,2,-0.043813,0.124349,1.479180
10360216,5170,32767,422,193,-24,13,-0.050159,0.125437,1.485150
10375842,5156,32767,486,181,-45,-8,-0.053609,0.126093,1.488384
10391467,5358,32767,448,142,-69,-14,-0.059478,0.126895,1.494306
10407094,5474,32767,408,148,-77,-15,-0.062145,0.127340,1.496917
10422720,5574,32767,356,237,-65,11,-0.067931,0.128383,1.502495
10438346,5692,32767,124,275,-48,31,-0.071809,0.129223,1.506003
10453973,5668,32767,-296,208,-62,23,-0.080596,0.131263,1.513694
10469599,5728,32767,-332,119,-63,8,-0.087803,0.133044,1.519925
10485225,5630,32767,-258,36,-53,-10,-0.090468,0.133815,1.522116
10500852,5596,32767,-164,12,-42,-8,-0.093646,0.134726,1.524770
10516479,5394,32767,-50,14,-32,-3,-0.095071,0.135298,1.525753
10532104,5334,32767,4,-41,-54,-21,-0.097284,0.136097,1.527424
10547731,5476,32767,96,-83,-71,-21,-0.097658,0.136324,1.527642
10563357,5600,32767,52,-73,-63,-25,-0.097773,0.136755,1.527450
10578983,5506,32767,202,-43,-47,-15,-0.098410,0.137306,1.527645
10594610,5506,32767,184,-5,-48,-4,-0.098945,0.137718,1.527845
10610237,5338,32767,352,22,-44,-2,-0.100918,0.138566,1.529171
10625863,5304,32767,228,47,-64,-1,-0.101967,0.138917,1.529989
10641490,5506,32767,136,64,-61,4,-0.104576,0.139612,1.532215
10657116,5562,32767,102,85,-53,7,-0.106240,0.140027,1.533622
10672742,5554,32767,16,93,-57,13,-0.110035,0.141138,1.536643
10688368,5494,32767,-128,79,-64,9,-0.112027,0.141791,1.538152
10703995,5608,32767,-154,51,-65,0,-0.115583,0.142771,1.541045
10719621,5688,32767,-66,30,-51,-6,-0.118341,0.143532,1.543303
10735248,5566,32767,-78,11,-48,-1,-0.119569,0.143929,1.544244
10750882,5506,32767,-130,-11,-49,-13,-0.121395,0.144746,1.545380
10766509,5564,32767,42,-25,-57,-16,-0.121903,0.144864,1.545845
10782136,5504,32767,12,-24,-62,-11,-0.122698,0.145302,1.546293
10797762,5642,32767,114,-10,-58,-20,-0.123095,0.145520,1.546517
10813389,5490,32767,130,23,-49,-12,-0.124198,0.146054,1.547192
10829016,5370,32767,132,48,-49,-2,-0.125025,0.146272,1.547871
10844641,5352,32767,-80,42,-55,-8,-0.127028,0.146632,1.549674
10860266,5374,32767,-70,55,-55,-1,-0.129027,0.146988,1.551491
10875893,5348,32767,94,63,-55,5,-0.130336,0.147353,1.552518
10891520,5386,32767,84,51,-69,8,-0.132584,0.147827,1.554478
10907146,5602,32767,2,56,-79,10,-0.133761,0.148147,1.555401
10922773,5700,32767,-98,66,-76,8,-0.136258,0.148962,1.557253
10938400,5664,32767,-248,46,-64,2,-0.137765,0.149517,1.558279
10954026,5612,32767,-120,43,-45,1,-0.140093,0.150136,1.560124
10969651,5488,32767,-46,31,-47,2,-0.142110,0.150799,1.561578
10985277,5514,32767,-142,24,-53,-1,-0.142864,0.151073,1.562098
11000903,5632,32767,-94,13,-51,-4,-0.144127,0.151494,1.563009
11016529,5554,32767,-118,5,-52,-3,-0.144748,0.151724,1.563425
11032155,5508,32767,-52,34,-63,-3,-0.145924,0.152207,1.564174
11047781,5570,32767,-76,36,-64,-2,-0.146745,0.152450,1.564791
11063407,5528,32767,-38,30,-56,-5,-0.148261,0.152893,1.565908
11079033,5502,32767,4,41,-46,1,-0.148909,0.153082,1.566404
11094659,5432,32767,-116,81,-50,10,-0.150593,0.153534,1.567692
11110285,5450,32767,-94,88,-62,8,-0.153211,0.154084,1.569875
11125911,5650,32767,-124,73,-63,6,-0.154336,2.987318,1.570843
11141537,5628,32767,-174,70,-54,9,-0.156824,2.986635,1.572722
11157163,5550,32767,-150,75,-47,9,-0.157994,2.986337,1.573634
11172789,5506,32767,-180,71,-59,9,-0.160318,2.985703,1.575379
11188415,5564,32767,-262,61,-66,5,-0.161359,2.985450,1.576187
11204040,5618,32767,-188,61,-63,2,-0.163325,2.985034,1.577789
11219666,5626,32767,-180,63,-57,5,-0.164297,2.984756,1.578513
11235292,5674,32767,-206,55,-50,0,-0.166390,2.984255,1.580130
11250918,5570,32767,-202,65,-44,8,-0.168034,2.983791,1.581341
11266545,5464,32767,-216,72,-43,4,-0.169015,2.983509,1.582054
11282172,5572,32767,-326,70,-55,6,-0.170815,2.983280,1.583632
11297799,5668,32767,-402,67,-59,2,-0.171794,2.983006,1.584358
11313426,5642,32767,-306,64,-49,-2,-0.173797,2.982588,1.585939
11329052,5556,32767,-230,60,-44,3,-0.174564,2.982468,1.586586
11344678,5574,32767,-270,43,-47,0,-0.176000,2.982168,1.587733
11360304,5506,32767,-296,49,-56,7,-0.177130,2.981776,1.588441
11375930,5428,32767,-320,79,-56,12,-0.177801,2.981597,1.588940
11391556,5536,32767,-316,85,-59,6,-0.179836,2.981225,1.590599
11407183,5702,32767,-368,75,-64,5,-0.180773,2.981207,1.591505
11422809,5704,32767,-474,76,-63,8,-0.182701,2.980739,1.592940
11438435,5700,32767,-436,64,-55,6,-0.183691,2.980470,1.593668
11454061,5656,32767,-488,55,-46,0,-0.185443,2.980047,1.594967
11469687,5522,32767,-428,84,-39,5,-0.186127,2.979864,1.595455
11485313,5660,32767,-496,86,-59,9,-0.188090,2.979607,1.597142
11500938,5734,32767,-562,56,-50,4,-0.190052,2.979178,1.598644
11516564,5598,32767,-558,43,-53,3,-0.190734,2.979004,1.599144
11532190,5562,32767,-556,32,-58,2,-0.191855,2.978731,1.599913
11547817,5546,32767,-420,24,-61,-5,-0.192111,2.978733,1.600158
11563444,5592,32767,-476,25,-61,-2,-0.192507,2.978585,1.600322
11579071,5640,32767,-524,42,-60,0,-0.192750,2.978549,1.600491
11594697,5690,32767,-636,28,-62,-5,-0.193571,2.978416,1.601120
11610323,5640,32767,-490,29,-61,-1,-0.193816,2.978380,1.601289
11625949,5598,32767,-458,42,-58,1,-0.194419,2.978225,1.601654
11641576,5614,32767,-532,36,-52,1,-0.195231,2.978055,1.602208
11657202,5596,32767,-614,41,-56,3,-0.195636,2.977865,1.602425
11672828,5638,32767,-520,53,-62,2,-0.196547,2.977762,1.603140
11688454,5688,32767,-570,39,-71,-6,-0.197112,2.977637,1.603538
11704081,5658,32767,-636,21,-75,-2,-0.197801,2.977520,1.604000
11719708,5720,32767,-640,10,-62,-5,-0.198050,2.977485,1.604169
11735334,5648,32767,-630,4,-50,-8,-0.198164,2.977328,1.604062
11750961,5700,32767,-600,24,-50,-3,-0.198073,2.977361,1.603951
11766587,5684,32767,-668,28,-57,-10,-0.198436,2.977243,1.604148
11782213,5632,32767,-604,7,-67,-9,-0.198832,2.977242,1.604434
11797840,5714,32767,-582,-22,-68,-13,-0.198565,2.977353,1.604261
11813466,5714,32767,-546,-48,-47,-17,-0.197812,2.977350,1.603432
11829091,5632,32767,-492,-31,-39,-9,-0.197115,2.977435,1.602782
11844718,5638,32767,-572,-2,-48,-9,-0.196300,2.977419,1.601908
11860344,5666,32767,-510,9,-53,-15,-0.196144,2.977446,1.601764
11875969,5596,32767,-430,5,-51,-15,-0.195823,2.977635,1.601583
11891596,5528,32767,-326,17,-59,-6,-0.195602,2.977700,1.601354
11907223,5584,32767,-430,37,-69,0,-0.195653,2.977720,1.601411
11922848,5734,32767,-512,51,-59,-2,-0.196351,2.977597,1.601862
11938475,5724,32767,-548,55,-51,1,-0.196944,2.977505,1.602324
11954102,5640,32767,-632,66,-47,0,-0.198119,2.977283,1.603174
11969729,5594,32767,-648,76,-59,6,-0.198927,2.977178,1.603825
11985356,5622,32767,-740,49,-62,-2,-0.200525,2.976945,1.605076
12000983,5690,32767,-534,18,-55,-9,-0.201079,2.976927,1.605518
12016609,5564,32767,-524,28,-49,1,-0.201312,2.976871,1.605636
12032235,5576,32767,-560,33,-46,0,-0.201660,2.976732,1.605783
12047861,5650,32767,-562,45,-54,-2,-0.201809,2.976765,1.605900
12063488,5592,32767,-622,70,-65,5,-0.202666,2.976644,1.606533
12079114,5706,32767,-594,77,-64,1,-0.203478,2.976550,1.607196
12094740,5664,32767,-520,69,-59,4,-0.205164,2.976311,1.608457
12110366,5640,32767,-576,62,-52,7,-0.205768,2.976224,1.608920
12125992,5624,32767,-636,59,-54,5,-0.207074,2.975935,1.609813
12141618,5648,32767,-688,61,-59,3,-0.208060,2.975725,1.610464
12157244,5650,32767,-784,85,-69,0,-0.208751,2.975677,1.611023
12172870,5732,32767,-828,69,-69,-1,-0.210478,2.975524,1.612436
12188496,5842,32767,-820,36,-61,-5,-0.211159,2.975436,1.612921
12204122,5696,32767,-730,2,-43,-10,-0.211706,2.975409,1.613324
12219749,5642,32767,-740,-2,-46,-9,-0.211347,2.975434,1.612968
12235376,5594,32767,-800,-6,-54,-12,-0.210838,2.975477,1.612455
12251003,5586,32767,-740,-6,-61,-10,-0.210459,2.975663,1.612240
12266629,5616,32767,-770,20,-66,-6,-0.210106,2.975742,1.611844
12282255,5718,32767,-558,19,-62,-10,-0.210309,2.975770,1.611954
12297883,5738,32767,-536,18,-54,-3,-0.210155,2.975799,1.611809
12313508,5736,32767,-754,21,-49,-2,-0.210173,2.975710,1.611652
12329134,5662,32767,-852,15,-48,-9,-0.210354,2.975642,1.611727
12344761,5600,32767,-794,24,-59,-4,-0.210475,2.975623,1.611729
12360388,5644,32767,-674,31,-60,-4,-0.210540,2.975639,1.611773
12376015,5674,32767,-660,23,-53,-7,-0.210963,2.975655,1.612072
12391641,5684,32767,-786,3,-45,-1,-0.210890,2.975536,1.611832
12407267,5696,32767,-900,-8,-52,-8,-0.210739,2.975554,1.611675
12422893,5656,32767,-806,4,-62,-8,-0.210419,2.975560,1.611300
12438519,5700,32767,-752,4,-64,-8,-0.210457,2.975493,1.611195
12454146,5718,32767,-550,9,-54,-14,-0.210123,2.975652,1.610948
12469772,5646,32767,-560,21,-50,-3,-0.209970,2.975670,1.610792
12485399,5666,32767,-688,26,-52,1,-0.210098,2.975506,1.610677
12501026,5760,32767,-828,21,-55,-9,-0.210279,2.975438,1.610752
12516653,5684,32767,-818,23,-55,-7,-0.210373,2.975531,1.610808
12532279,5570,32767,-698,41,-58,-5,-0.211047,2.975424,1.611242
12547904,5622,32767,-612,18,-61,-11,-0.211218,2.975511,1.611446
12563531,5676,32767,-636,5,-59,0,-0.210973,2.975698,1.611282
12579158,5712,32767,-798,7,-52,-3,-0.210919,2.975601,1.611094
12594784,5738,32767,-888,-2,-55,-13,-0.210929,2.975520,1.610949
12610410,5730,32767,-732,14,-58,-7,-0.210749,2.975650,1.610846
12626036,5648,32767,-766,21,-49,-7,-0.210865,2.975640,1.610860
12641662,5606,32767,-664,-5,-48,-13,-0.211033,2.975531,1.610861
12657288,5608,32767,-630,-3,-57,-5,-0.210266,2.975734,1.610286
12672915,5642,32767,-634,17,-62,-4,-0.209702,2.975892,1.609838
12688542,5676,32767,-590,38,-61,-2,-0.209958,2.975822,1.609934
12704168,5714,32767,-704,49,-53,-1,-0.210521,2.975799,1.610338
12719794,5750,32767,-700,41,-49,-2,-0.211138,2.975678,1.610728
12735421,5728,32767,-736,40,-52,0,-0.211826,2.975564,1.611151
12751048,5604,32767,-682,35,-50,1,-0.212233,2.975495,1.611427
12766675,5588,32767,-800,31,-58,-3,-0.212696,2.975392,1.611661
12782301,5688,32767,-708,39,-61,-3,-0.213240,2.975484,1.612118
12797927,5748,32767,-712,41,-55,-4,-0.213635,2.975374,1.612319
12813554,5750,32767,-812,16,-52,-6,-0.214325,2.975271,1.612754
12829180,5704,32767,-682,9,-55,-9,-0.214263,2.975319,1.612682
12844807,5634,32767,-738,15,-59,-4,-0.214159,2.975310,1.612496
12860433,5652,32767,-814,23,-56,-8,-0.214093,2.975367,1.612435
12876059,5650,32767,-756,48,-59,-4,-0.214442,2.975348,1.612638
12891685,5650,32767,-732,54,-54,-1,-0.214950,2.975312,1.612998
12907312,5660,32767,-720,30,-55,-5,-0.215755,2.975282,1.613591
12922938,5696,32767,-744,44,-67,5,-0.216319,2.975222,1.613922
12938565,5818,32767,-746,43,-56,1,-0.216599,2.975196,1.614092
12954191,5716,32767,-842,39,-52,-2,-0.217534,2.974939,1.614602
12969817,5708,32767,-880,45,-51,1,-0.217953,2.974864,1.614867
12985443,5692,32767,-944,41,-56,-3,-0.218752,2.974795,1.615386
13001069,5622,32767,-862,20,-55,-6,-0.219169,2.974730,1.615663
13016695,5628,32767,-804,6,-54,-8,-0.219278,2.974827,1.615718
13032321,5692,32767,-824,1,-60,-2,-0.218932,2.974786,1.615269
13047948,5736,32767,-832,6,-58,-7,-0.218655,2.974885,1.615081
13063574,5726,32767,-910,9,-54,-12,-0.218655,2.974761,1.614864
13079200,5672,32767,-838,9,-50,-9,-0.218489,2.974934,1.614834
13094827,5638,32767,-838,19,-58,-7,-0.218387,2.974926,1.614648
13110454,5658,32767,-822,16,-63,-8,-0.218434,2.975056,1.614744
13126081,5718,32767,-740,-3,-61,-7,-0.218294,2.975119,1.614536
13141708,5726,32767,-908,7,-59,-9,-0.218017,2.975071,1.614234
13157335,5708,32767,-834,29,-56,-8,-0.217905,2.975218,1.614173
13172961,5700,32767,-866,18,-58,-13,-0.218363,2.975232,1.614461
13188587,5762,32767,-874,9,-49,-12,-0.218181,2.975362,1.614356
13204213,5600,32767,-760,9,-53,-10,-0.218091,2.975395,1.614243
13219839,5638,32767,-852,-6,-56,-14,-0.218013,2.975400,1.614097
13235464,5680,32767,-812,12,-53,-5,-0.217448,2.975596,1.613720
13251089,5688,32767,-908,8,-57,-7,-0.217502,2.975571,1.613690
13266715,5636,32767,-834,0,-45,-6,-0.217272,2.975643,1.613472
13282341,5520,32767,-664,16,-45,-2,-0.217168,2.975623,1.613274
13297966,5680,32767,-698,34,-68,1,-0.217104,2.975670,1.613200
13313593,5786,32767,-886,44,-63,-1,-0.217679,2.975622,1.613542
13329220,5794,32767,-914,31,-52,-2,-0.218188,2.975548,1.613829
13344846,5650,32767,-872,27,-49,-5,-0.218930,2.975337,1.614214
13360471,5718,32767,-860,33,-54,-5,-0.219223,2.975304,1.614374
13376098,5764,32767,-790,20,-52,-6,-0.219689,2.975320,1.614661
13391725,5672,32767,-766,30,-43,0,-0.219644,2.975263,1.614548
13407352,5644,32767,-810,36,-49,-1,-0.220153,2.975199,1.614846
13422979,5786,32767,-980,26,-60,-8,-0.220521,2.975184,1.615050
13438604,5808,32767,-936,49,-52,-4,-0.220914,2.975193,1.615304
13454230,5594,32767,-888,50,-42,-4,-0.222005,2.975009,1.615963
13469855,5530,32767,-884,7,-47,-14,-0.222334,2.975064,1.616270
13485482,5606,32767,-858,4,-57,-10,-0.221869,2.975281,1.615964
13501108,5734,32767,-954,27,-58,-7,-0.221685,2.975410,1.615858
13516734,5700,32767,-870,28,-49,-6,-0.222159,2.975428,1.616145
13532361,5656,32767,-782,20,-54,-6,-0.222233,2.975446,1.616189
13547988,5644,32767,-740,16,-57,-2,-0.222368,2.975430,1.616192
13563614,5818,32767,-932,4,-60,-5,-0.222241,2.975386,1.615944
13579239,5774,32767,-994,13,-46,-4,-0.222060,2.975357,1.615713
13594865,5564,32767,-802,47,-49,-1,-0.222453,2.975229,1.615867
13610492,5638,32767,-760,40,-56,-8,-0.222997,2.975191,1.616216
13626118,5760,32767,-770,56,-61,-7,-0.223492,2.975254,1.616576
13641745,5740,32767,-856,74,-48,5,-0.224137,2.975258,1.617020
13657371,5568,32767,-912,66,-45,7,-0.225749,2.974962,1.618019
13672997,5580,32767,-996,81,-55,4,-0.227344,2.974781,1.619069
13688623,5682,32767,-1008,87,-70,5,-0.228494,2.974828,1.619976
13704249,5854,32767,-1052,72,-65,-2,-0.230542,2.974729,1.621405
13719882,5884,32767,-1012,51,-50,-1,-0.231331,2.974708,1.621966
13735508,5674,32767,-924,18,-50,4,-0.232332,2.974456,1.622470
13751135,5592,32767,-1090,20,-62,4,-0.232401,2.974273,1.622318
13766762,5644,32767,-1118,55,-66,1,-0.232880,2.974264,1.622544
13782388,5712,32767,-1054,66,-70,4,-0.233568,2.974211,1.623022
13798014,5834,32767,-1034,58,-55,2,-0.235584,2.974018,1.624267
13813640,5764,32767,-972,39,-42,5,-0.236022,2.973907,1.624460
13829267,5814,32767,-1044,36,-47,-2,-0.236353,2.973763,1.624571
13844894,5812,32767,-1122,29,-50,-3,-0.236876,2.973673,1.624809
13860520,5758,32767,-1200,43,-45,-5,-0.237083,2.973612,1.624886
13876145,5638,32767,-1186,48,-38,-5,-0.237872,2.973550,1.625376
13891771,5740,32767,-1156,40,-39,-9,-0.238449,2.973561,1.625798
13907396,5720,32767,-1156,4,-43,-18,-0.238628,2.973730,1.625976
13923023,5608,32767,-1146,-2,-52,-9,-0.237940,2.973998,1.625551
13938650,5624,32767,-1110,-14,-56,-16,-0.237642,2.974051,1.625288
13954276,5434,32767,-902,-2,-49,-7,-0.236321,2.974504,1.624477
13969902,5438,32767,-776,30,-55,2,-0.236035,2.974602,1.624287
13985529,5678,32767,-830,46,-65,-14,-0.235944,2.974742,1.624212
14001155,5960,32767,-1002,59,-81,8,-0.236122,2.974912,1.624388
14016782,6032,32767,-1236,91,-71,10,-0.237954,2.974340,1.625223
14032409,5924,32767,-1136,103,-53,1,-0.239499,2.974118,1.626170
14048035,5694,32767,-1110,88,-48,8,-0.242140,2.973647,1.627769
14063662,5566,32767,-1108,93,-58,5,-0.243099,2.973584,1.628426
14079287,5822,32767,-1182,102,-68,8,-0.245473,2.973499,1.630047
14094914,5860,32767,-1374,77,-61,9,-0.247737,2.973234,1.631473
14110539,5764,32767,-1384,86,-60,9,-0.248810,2.973058,1.632103
14126165,5696,32767,-1098,119,-56,27,-0.251445,2.972665,1.633682
14141791,5682,32767,-1028,117,-64,34,-0.253030,2.972376,1.634653
14157417,5840,32767,-1304,59,-62,17,-0.255782,2.971722,1.636096
14173044,5956,32767,-1280,50,-44,15,-0.256957,2.971251,1.636529
14188671,5818,32767,-1386,95,-46,27,-0.258038,2.970917,1.637039
14204297,5722,32767,-1556,129,-52,16,-0.259381,2.970623,1.637811
14219924,5598,32767,-1398,157,-70,14,-0.262807,2.970326,1.640116
14235550,5780,32767,-1526,125,-76,14,-0.266595,2.970190,1.642754
14251177,5758,32767,-1464,90,-69,-4,-0.268168,2.970095,1.643754
14266804,5752,32767,-1376,43,-93,-12,-0.269727,2.970273,1.644884
14282430,5696,32767,-1368,-13,-120,-14,-0.269693,2.970467,1.644881
14298057,5728,32767,-1364,-46,-145,-18,-0.268698,2.970855,1.643974
14313684,5562,32767,-1156,-19,-148,-13,-0.267754,2.971182,1.643283
14329310,5392,32767,-926,31,-171,5,-0.266845,2.971592,1.642417
14344936,5448,32767,-940,95,-227,14,-0.268165,2.971849,1.642985
14360562,5680,32767,-976,117,-261,18,-0.269576,2.972057,1.643811
14376188,5842,32767,-1066,165,-263,26,-0.273804,2.971897,1.646019
14391815,5818,32767,-1020,236,-250,46,-0.276778,2.971794,1.647726
14407442,5740,32767,-918,279,-258,75,-0.285088,2.970955,1.652358
14423068,5784,32767,-1180,254,-290,66,-0.294768,2.969738,1.657549
14438694,5668,32767,-802,57,-307,10,-0.297846,2.969598,1.659140
14454320,5658,32767,-842,37,-345,39,-0.298341,2.969802,1.658992
14469946,5854,32767,-1510,173,-379,90,-0.301542,2.969467,1.659675
14485573,6088,32767,-1616,246,-398,106,-0.310623,2.968064,1.663516
14501198,5994,32767,-1568,334,-393,147,-0.316897,2.967184,1.666456
14516824,5780,32767,-1572,395,-406,176,-0.332400,2.964622,1.673712
14532450,5728,32767,-1554,388,-438,172,-0.341256,2.963131,1.677842
14548076,5902,32767,-1942,386,-476,194,-0.358740,2.960698,1.685934
14563703,5998,32767,-1898,353,-507,215,-0.368020,2.959226,1.690003
14579329,6034,32767,-1764,299,-538,207,-0.386412,2.956106,1.697414
14594955,5978,32767,-1698,282,-561,209,-0.394717,2.954826,1.700514
14610581,5888,32767,-1556,273,-612,211,-0.411760,2.952135,1.706436
14626208,6074,32767,-1528,298,-663,203,-0.429118,2.949826,1.712055
14641834,6360,32767,-1762,413,-670,228,-0.438898,2.948844,1.715366
14657460,6574,32767,-1896,490,-688,223,-0.463179,2.946262,1.724271
14673086,6794,32767,-2254,628,-722,239,-0.477292,2.945065,1.729672
14688712,6792,32767,-2310,754,-737,262,-0.511755,2.942246,1.743590
14704339,6726,32767,-2328,821,-766,279,-0.531541,2.940763,1.751820
14719966,6740,32767,-2596,855,-811,290,-0.574249,2.937907,1.769350
14735593,7006,32767,-3066,854,-880,300,-0.619845,2.935437,1.787526
14751220,7254,32767,-3396,849,-920,298,-0.643604,2.934250,1.796672
14766846,7234,32767,-3566,830,-938,298,-0.692321,2.932440,1.814837
14782472,7120,32767,-3838,781,-956,303,-0.716932,2.931648,1.823622
14798099,7002,32767,-4186,724,-995,301,-0.765596,2.930498,1.840034
14813726,6986,32767,-4226,667,-1045,280,-0.790012,2.930401,1.847726
14829353,7010,32767,-4470,642,-1084,266,-0.839148,2.930984,1.861914
14844979,7332,32767,-4826,561,-1118,243,-0.864139,2.931676,1.868700
14860605,7780,32767,-5464,471,-1075,216,-0.913569,2.933656,1.880350
14876231,7632,32767,-5524,431,-1050,204,-0.961244,2.935497,1.890287
14891856,7452,32767,-5358,440,-1076,193,-0.984623,2.936623,1.894655
14907482,7278,32767,-5334,461,-1090,199,-1.033611,2.939461,1.903649
14923108,7152,32767,-5392,484,-1141,217,-1.059292,2.940939,1.908247
14938735,7162,32767,-5550,531,-1199,227,-1.114215,2.944199,1.917877
14954361,7300,32767,-5738,525,-1252,219,-1.144394,2.946087,1.923210
14969988,7316,32767,-6008,504,-1321,225,-1.207401,2.950278,1.933650
14985613,7178,32767,-6184,459,-1374,233,-1.240781,2.952591,1.938784
15001239,6582,32767,-6400,346,-1457,251,-1.310281,2.957686,1.947853
15016865,6530,32767,-6378,269,-1555,238,-1.385298,2.963863,1.954608
15032491,7034,32767,-6172,217,-1594,164,-1.424884,2.967522,1.957225
15048117,7544,32767,-6432,64,-1566,114,-1.505279,2.976055,1.960420
15063743,7764,32767,-6850,-48,-1534,125,-1.544923,2.980372,1.960263
15079369,7692,32767,-6858,-37,-1527,125,-1.625257,2.987925,1.958318
15094995,7624,32767,-6684,-14,-1534,101,-1.666346,2.991681,1.957420
15110622,7550,32767,-6338,8,-1541,118,-1.749061,2.999276,1.955959
15126248,7218,32767,-6294,63,-1558,201,-1.833380,3.005989,1.954779
15141883,7026,32767,-6324,95,-1565,229,-1.875726,3.008834,1.954518
15157510,7222,32767,-6294,165,-1575,198,-1.958311,3.014307,1.955023
15173136,7508,32767,-6338,237,-1574,187,-1.997889,3.017359,1.955821
15188762,7786,32767,-6522,211,-1552,203,-2.072071,3.022859,1.958593
15204387,7868,32767,-6630,72,-1535,207,-2.107542,3.025328,1.959437
15220013,7686,32767,-6494,-56,-1532,220,-2.178377,3.029698,1.958127
15235639,7624,32767,-6618,-128,-1523,227,-2.213947,3.031802,1.956093
15251264,7904,32767,-6688,-94,-1476,192,-2.283333,3.035602,1.950897
15266891,8104,32767,-6710,-42,-1453,178,-2.345028,3.039232,1.946784
15282518,8232,32767,-6688,-43,-1435,200,-2.373725,3.040793,1.945099
15298145,8094,32767,-6900,-86,-1396,231,-2.428222,3.043289,1.941473
15313771,7902,32767,-6940,-94,-1342,245,-2.454324,3.043916,1.939329
15329397,7730,32767,-6930,-48,-1303,233,-2.502819,3.044857,1.935274
15345024,7688,32767,-7002,-2,-1279,210,-2.524666,3.045290,1.933637
15360651,7718,32767,-7016,32,-1262,211,-2.563978,3.046445,1.931472
15376278,7856,32767,-6874,61,-1241,235,-2.599436,3.046988,1.930276
15391904,7858,32767,-6826,37,-1199,224,-2.616285,3.047109,1.929725
15407530,7882,32767,-6958,-18,-1155,184,-2.648127,3.047233,1.927866
15423156,7876,32767,-6930,-51,-1128,155,-2.663192,3.047513,1.926409
15438783,7984,32767,-6928,-50,-1113,150,-2.692379,3.048196,1.922862
15454409,8170,32767,-6996,-56,-1088,149,-2.706242,3.048517,1.921121
15470035,8132,32767,-6778,-53,-1053,152,-2.732700,3.048588,1.917622
15485661,7916,32767,-6392,-36,-1035,157,-2.757374,3.048229,1.914117
15501287,7738,32767,-6150,-32,-1031,172,-2.769238,3.048102,1.912406
15516913,7826,32767,-6252,-39,-1025,181,-2.792590,3.047401,1.908790
15532539,8098,32767,-6550,-26,-1026,163,-2.803937,3.046952,1.907072
15548166,8278,32767,-6538,-29,-1014,143,-2.824860,3.046299,1.904116
15563793,8208,32767,-6308,-58,-1000,146,-2.834819,3.045884,1.902690
15579419,8030,32767,-6082,-65,-986,159,-2.855041,3.045053,1.898933
15595045,7888,32767,-5994,-29,-990,170,-2.864830,3.044466,1.897117
15610671,7822,32767,-6150,-35,-1010,166,-2.883331,3.043455,1.893991
15626297,8018,32767,-6140,-21,-1020,157,-2.892360,3.043060,1.892431
15641923,8130,32767,-6142,-53,-1031,128,-2.909245,3.042384,1.889880
15657549,8142,32767,-6040,-97,-1016,126,-2.925910,3.042015,1.886461
15673175,8112,32767,-6118,-90,-1009,134,-2.934334,3.041734,1.884398
15688802,8168,32767,-6174,-65,-1002,137,-2.950560,3.041006,1.880617
15704428,8242,32767,-6294,-38,-985,135,-2.958129,3.040570,1.878996
15720055,8264,32767,-6364,2,-970,138,-2.972132,3.039549,1.876647
15735681,8106,32767,-6300,30,-974,149,-2.978515,3.038933,1.876059
15751307,8100,32767,-6426,34,-961,158,-2.990809,3.037682,1.875145
15766933,7926,32767,-6652,33,-916,180,-2.996838,3.036848,1.874815
15782560,7960,32767,-6726,33,-870,178,-3.008627,3.034875,1.874210
15798187,8070,32767,-6400,92,-861,150,-3.019471,3.032783,1.873915
15813814,8406,32767,-6510,83,-876,132,-3.024158,3.032020,1.874262
15829440,8680,32767,-6702,-11,-819,133,-3.034095,3.030287,1.874185
15845067,8606,32767,-6604,-52,-740,122,-3.044978,3.027992,1.872054
15860692,8386,32767,-6516,-71,-697,94,-3.050198,3.026853,1.870670
15876318,8442,32767,-6404,-40,-698,88,-3.055142,3.026001,1.869124
15891944,8736,32767,-6360,18,-715,89,-3.064336,3.024286,1.866903
15907569,8822,32767,-6180,73,-701,102,-3.072821,3.022240,1.866195
15923195,8726,32767,-6298,61,-673,117,-3.076854,3.021085,1.866188
15938822,8456,32767,-6168,20,-658,117,-3.085317,3.018380,1.865737
15954448,8436,32767,-6174,-25,-652,93,-3.089592,3.017188,1.865014
15970075,8388,32767,-6046,-37,-650,75,-3.097951,3.015343,1.862774
15985702,8546,32767,-6052,-50,-669,80,-3.101919,3.014609,1.861474
16001329,8584,32767,-6164,-73,-658,84,-3.110129,3.013076,1.858749
16016955,8364,32767,-6226,-51,-634,89,-3.114476,3.012057,1.857161
16032581,8116,32767,-6270,10,-630,116,-3.122303,3.010161,1.854936
16048206,8294,32767,-6218,49,-644,133,-3.129660,3.007929,1.854027
16063832,8608,32767,-6182,78,-648,128,-3.133186,3.006772,1.854019
16079458,8734,32767,-6158,60,-631,125,-3.140212,3.004180,1.854456
16095083,8698,32767,-6240,-13,-591,121,3.135571,3.001470,1.853754
16110710,8566,32767,-6258,-78,-562,105,3.131553,3.000005,1.852612
16126337,8556,32767,-6488,-99,-541,88,3.127725,2.998874,1.851015
16141962,8648,32767,-6524,-71,-524,89,3.120531,2.996734,1.848037
16157588,8648,32767,-6340,-10,-507,111,3.117056,2.995494,1.846961
16173215,8644,32767,-6238,10,-490,120,3.110266,2.992741,1.845486
16188841,8688,32767,-6230,30,-473,115,3.103631,2.989708,1.844646
16204467,8762,32767,-6320,16,-470,102,3.100507,2.988200,1.844444
16220093,8920,32767,-6476,-34,-451,94,3.094340,2.985458,1.843487
16235719,9064,32767,-6594,-50,-401,82,3.091196,2.984143,1.842445
16251346,8918,32767,-6434,-19,-346,71,3.085162,2.981301,1.840633
16266972,8640,32767,-6272,-6,-330,73,3.082256,2.979783,1.839787
16282599,8600,32767,-6276,-12,-341,78,3.077065,2.977194,1.838348
16298226,8878,32767,-6194,15,-361,70,3.071956,2.974710,1.836967
16313852,9150,32767,-6484,0,-335,50,3.069488,2.973482,1.836560
16329477,9232,32767,-6576,-3,-264,54,3.064625,2.970954,1.835346
16345104,8918,32767,-6392,55,-214,72,3.062233,2.969489,1.834840
16360730,8642,32767,-6404,73,-201,62,3.057754,2.966275,1.834664
16376357,8634,32767,-6222,58,-205,41,3.055897,2.964993,1.834697
16391984,8962,32767,-6380,11,-215,24,3.052427,2.962862,1.834136
16407611,9230,32767,-6504,-41,-181,15,3.050583,2.961890,1.833249
16423237,9102,32767,-6382,-16,-114,15,3.046559,2.959575,1.830936
16438862,8976,32767,-6384,19,-81,18,3.042906,2.957079,1.829128
16454489,8742,32767,-6236,43,-52,20,3.041218,2.955783,1.828475
16470115,8728,32767,-6002,64,-65,22,3.038240,2.953329,1.827482
16485742,8824,32767,-5956,52,-88,18,3.036789,2.952156,1.827084
16501368,9060,32767,-6188,13,-76,11,3.033865,2.949991,1.825930
16516995,9110,32767,-6336,-12,-35,5,3.032409,2.948981,1.825039
16532621,8900,32767,-6224,-7,-17,-1,3.029293,2.946628,1.822864
16548248,8790,32767,-6000,14,-22,-3,3.027864,2.945585,1.821741
16563882,8874,32767,-5660,43,-34,-3,3.025445,2.943766,1.819983
16579508,9000,32767,-5732,29,-46,1,3.023140,2.942015,1.818534
16595135,9088,32767,-5890,-7,-29,4,3.021742,2.940945,1.817699
16610760,8996,32767,-6068,-22,-12,-10,3.018955,2.938951,1.815398
16626386,8880,32767,-6136,-21,-19,-14,3.017775,2.938175,1.814127
16642012,8662,32767,-6072,2,-30,-3,3.015558,2.936665,1.812067
16657638,8550,32767,-5984,50,-45,9,3.014439,2.935838,1.811257
16673263,8590,32767,-6026,84,-62,26,3.012704,2.934417,1.810761
16688889,8738,32767,-5940,72,-70,21,3.010853,2.932788,1.810997
16704515,8808,32767,-6028,41,-63,11,3.009817,2.931904,1.810920
16720141,8836,32767,-6328,-18,-49,-1,3.007767,2.930439,1.809911
16735768,8802,32767,-6122,-26,-51,-3,3.006869,2.929913,1.808996
16751395,8660,32767,-6070,-8,-70,-3,3.004755,2.928658,1.807029
16767021,8818,32767,-6082,17,-73,-3,3.003936,2.928239,1.806313
16782647,9068,32767,-6104,37,-80,-5,3.002402,2.927312,1.805419
16798273,9106,32767,-6016,22,-69,-2,3.001483,2.926656,1.805122
16813899,8962,32767,-6064,35,-44,2,2.999544,2.925257,1.804235
16829526,8890,32767,-6150,51,-40,-5,2.997883,2.923931,1.803574
16845152,8790,32767,-6288,37,-49,-13,2.997226,2.923366,1.803526
16860777,8800,32767,-6156,15,-54,-26,2.996182,2.922655,1.803058
16876404,8970,32767,-5982,-2,-57,-45,2.995684,2.922440,1.802441
16892030,9094,32767,-5976,-18,-40,-56,2.994918,2.922299,1.800963
16907655,8942,32767,-5864,-20,-15,-46,2.994379,2.922111,1.799978
16923281,8698,32767,-5906,27,-13,-25,2.993375,2.921663,1.798116
16938907,8640,32767,-6026,69,-50,-30,0.860552,-1.937542,3.092838
16954533,8734,32767,-6086,68,-69,-34,2.992677,2.921135,1.797917
16970160,8872,32767,-6140,55,-63,-29,2.992337,2.920972,1.798161
16985786,8758,32767,-6168,39,-57,-27,2.992029,2.920760,1.798181
17001412,8618,32767,-6076,41,-62,-21,2.991341,2.920402,1.797860
17017038,8684,32767,-6056,62,-81,-21,2.991011,2.920211,1.797786
17032664,8932,32767,-6162,57,-91,-24,2.990636,2.920081,1.797996
17048290,9088,32767,-6162,61,-66,-13,2.990221,2.919809,1.798117
17063916,9006,32767,-6196,42,-30,-16,2.989188,2.918932,1.798267
17079543,8638,32767,-6242,6,-21,-25,2.988286,2.918245,1.797657
17095169,8518,32767,-6272,-23,-44,-30,2.987925,2.918065,1.797115
17110794,8706,32767,-6172,-26,-63,-34,2.987250,2.918010,1.795660
17126420,8914,32767,-6062,-14,-61,-37,2.986879,2.918021,1.794899
17142047,8912,32767,-6078,6,-51,-31,2.986143,2.917861,1.793734
17157674,8852,32767,-6116,22,-35,-17,2.985656,2.917642,1.793197
17173300,8660,32767,-6172,45,-27,-14,2.984740,2.916970,1.792610
17188927,8668,32767,-6248,52,-39,-12,2.984387,2.916626,1.792683
17204553,8722,32767,-6226,30,-51,-20,2.983808,2.916167,1.792762
17220178,8770,32767,-6048,6,-52,-35,2.983232,2.915865,1.792343
17235804,8708,32767,-5958,-25,-40,-39,2.983031,2.915886,1.791946
17251430,8722,32767,-6074,-35,-34,-31,2.982243,2.915761,1.790178
17267056,8676,32767,-6102,-14,-41,-23,2.981818,2.915638,1.789311
17282681,8672,32767,-6112,21,-50,-17,2.980939,2.915273,1.788159
17298308,8678,32767,-6068,48,-60,-12,2.980705,2.915157,1.788008
17313934,8778,32767,-6100,40,-57,-3,2.980101,2.914728,1.788133
17329560,8696,32767,-6068,12,-54,-6,2.979700,2.914437,1.788157
17345186,8648,32767,-6122,-29,-48,-18,2.978633,2.913756,1.787623
17360811,8614,32767,-6076,-46,-47,-23,2.977788,2.913523,1.786147
17376437,8700,32767,-6016,-19,-66,-17,2.977416,2.913528,1.785229
17392063,8808,32767,-6024,13,-75,-4,2.976503,2.913206,1.784146
17407689,8890,32767,-6110,30,-67,4,2.976046,2.912972,1.784003
17423315,8814,32767,-6102,39,-55,2,2.974973,2.912142,1.784110
17438942,8694,32767,-6058,30,-45,-2,2.974512,2.911736,1.784208
17454569,8592,32767,-6088,-2,-47,-17,2.973690,2.911163,1.783944
17470195,8522,32767,-6076,-21,-59,-32,2.973216,2.911104,1.783129
17485821,8574,32767,-6080,-39,-68,-42,2.973057,2.911255,1.782485
17501448,8702,32767,-6076,-28,-74,-54,2.972888,2.911761,1.781147
17517075,8738,32767,-6106,-13,-74,-51,2.972912,2.912080,1.780524
17532701,8900,32767,-6146,16,-56,-33,2.972864,2.912481,1.779896
17548328,8720,32767,-6182,48,-49,-31,2.972722,2.912455,1.779847
17563954,8554,32767,-6174,44,-51,-35,2.972639,2.912383,1.780263
17579580,8484,32767,-6088,44,-73,-29,2.972702,2.912506,1.780409
17595205,8734,32767,-6048,48,-90,-31,2.972828,2.912763,1.780918
17610831,8876,32767,-6136,33,-65,-28,2.972663,2.912790,1.781430
17626458,8730,32767,-6144,15,-40,-22,2.972542,2.912744,1.781475
17642084,8478,32767,-6088,2,-31,-19,2.971955,2.912456,1.780965
17657709,8372,32767,-6036,7,-41,-18,2.971712,2.912342,1.780619
17673336,8456,32767,-6082,14,-67,-10,2.971386,2.912314,1.780071
17688962,8652,32767,-6100,27,-76,8,2.971114,2.912247,1.779951
17704588,8736,32767,-6096,47,-75,19,2.970234,2.911579,1.780201
17720215,8670,32767,-6118,27,-52,18,2.969118,2.910632,1.780664
17735842,8546,32767,-6046,14,-53,18,2.968553,2.910154,1.780649
17751468,8570,32767,-6042,-4,-65,9,2.967507,2.909458,1.780241
17767095,8644,32767,-6040,-12,-67,0,2.966947,2.909149,1.779906
17782722,8772,32767,-6116,-2,-70,-5,2.966106,2.908768,1.779215
17798347,8664,32767,-6076,1,-68,-10,2.965727,2.908628,1.778900
17813972,8642,32767,-6158,28,-61,-4,2.965032,2.908285,1.778556
17829599,8646,32767,-6168,55,-52,-15,2.964818,2.908162,1.778684
17845226,8646,32767,-6158,36,-42,-34,2.964685,2.907977,1.779451
17860852,8580,32767,-6254,4,-42,-53,2.964988,2.908383,1.779464
17876477,8534,32767,-6190,-18,-53,-73,2.965174,2.908720,1.779163
17892102,8580,32767,-6090,-16,-70,-81,2.965918,2.909893,1.778318
17907729,8750,32767,-6106,17,-76,-70,2.966332,2.910526,1.777906
17923355,8806,32767,-6122,69,-66,-39,2.966928,2.911352,1.778030
17938982,8790,32767,-6158,100,-48,-17,2.967058,2.911419,1.778617
17954608,8628,32767,-6128,78,-37,-11,2.967049,2.911125,1.780153
17970234,8498,32767,-6134,34,-38,-5,2.966740,2.910754,1.780720
17985861,8392,32767,-6030,-5,-54,2,2.966335,2.910466,1.780632
18001488,8512,32767,-6092,-34,-50,5,2.965482,2.910092,1.779706
18017115,8586,32767,-6108,-52,-43,10,2.964992,2.909873,1.779039
18032741,8468,32767,-6032,-28,-46,20,2.963628,2.909122,1.777533
18048368,8474,32767,-6040,-9,-54,25,2.963079,2.908792,1.777019
18063995,8522,32767,-5960,16,-57,31,2.961922,2.908032,1.776444
18079621,8498,32767,-5976,46,-76,30,2.961230,2.907512,1.776362
18095248,8668,32767,-6258,45,-76,23,2.960304,2.906730,1.776973
18110883,8708,32767,-6234,66,-72,20,2.959402,2.905934,1.777839
18126508,8640,32767,-6154,62,-66,9,2.959157,2.905679,1.778414
18142134,8536,32767,-6112,64,-66,-5,2.958656,2.905170,1.779289
18157761,8472,32767,-6064,62,-81,-15,2.958570,2.905106,1.779788
18173388,8600,32767,-6184,69,-94,-24,2.958804,2.905441,1.780612
18189015,8780,32767,-6278,69,-97,-37,2.959001,2.905620,1.781244
18204641,8814,32767,-6364,37,-91,-49,2.959423,2.906128,1.782361
18220268,8690,32767,-6284,0,-74,-54,2.959885,2.906916,1.782409
18235895,8392,32767,-6168,-4,-68,-54,2.960142,2.907357,1.782069
18251521,8412,32767,-6310,4,-88,-38,2.960628,2.908277,1.781472
18267148,8592,32767,-6310,18,-92,-16,2.960798,2.908638,1.781330
18282774,8654,32767,-6312,37,-90,-9,2.960572,2.908727,1.781598
18298400,8728,32767,-6338,17,-77,-4,2.960351,2.908619,1.781867
18314027,8598,32767,-6272,-9,-58,6,2.959768,2.908351,1.781801
18329654,8478,32767,-6266,-19,-46,4,2.959233,2.908015,1.781488
18345280,8420,32767,-6218,-18,-43,-1,2.958425,2.907597,1.780641
18360907,8410,32767,-6152,-20,-52,2,2.958042,2.907451,1.780053
18376533,8644,32767,-6268,1,-58,6,2.957401,2.907217,1.779246
18392160,8686,32767,-6242,24,-48,6,2.956653,2.906760,1.779063
18407787,8660,32767,-6176,30,-37,0,2.956270,2.906451,1.779075
18423413,8540,32767,-6084,36,-36,1,2.955697,2.905991,1.779171
18439039,8532,32767,-6132,51,-36,-9,2.955512,2.905833,1.779295
18454665,8476,32767,-6148,72,-41,-16,2.955454,2.905739,1.779867
18470291,8522,32767,-6210,92,-55,-22,2.955708,2.905874,1.781022
18485917,8620,32767,-6296,116,-67,-21,2.955965,2.905994,1.781956
18501542,8700,32767,-6370,62,-67,-47,2.956452,2.906265,1.783791
18517168,8528,32767,-6274,21,-62,-48,2.956793,2.906640,1.784145
18532794,8362,32767,-6168,10,-68,-54,2.957289,2.907376,1.783961
18548421,8402,32767,-6320,10,-86,-42,2.957548,2.907817,1.783696
18564047,8544,32767,-6376,31,-94,-20,2.957993,2.908620,1.783679
18579672,8564,32767,-6326,42,-88,-12,2.958025,2.908780,1.783866
18595298,8532,32767,-6312,24,-79,-2,2.957751,2.908745,1.784384
18610925,8504,32767,-6310,1,-67,2,2.957501,2.908659,1.784361
18626551,8388,32767,-6314,-53,-50,-15,2.956795,2.908327,1.783851
18642177,8474,32767,-6232,-62,-55,-12,2.956303,2.908450,1.782191
18657804,8592,32767,-6240,-24,-65,-5,2.955969,2.908426,1.781353
18673431,8536,32767,-6200,21,-66,2,2.955309,2.908218,1.780592
18689057,8620,32767,-6238,43,-62,12,2.954997,2.908019,1.780647
18704683,8612,32767,-6258,28,-51,0,2.954245,2.907404,1.781068
18720309,8552,32767,-6294,-1,-37,-14,2.953798,2.907162,1.780857
18735935,8452,32767,-6218,-28,-34,-31,2.953632,2.907149,1.780438
18751562,8376,32767,-6178,-26,-53,-34,2.953625,2.907320,1.779860
18767188,8416,32767,-6186,16,-75,-19,2.953754,2.907888,1.778944
18782814,8528,32767,-6170,43,-83,-15,2.953813,2.908205,1.779122
18798440,8622,32767,-6314,42,-76,-12,2.953686,2.908177,1.779389
18814066,8592,32767,-6306,45,-56,-7,2.953539,2.908185,1.779977
18829691,8462,32767,-6226,38,-54,-8,2.953373,2.908017,1.780356
18845317,8384,32767,-6300,6,-62,-17,2.953214,2.908024,1.780550
18860944,8430,32767,-6200,-6,-77,-16,2.953138,2.908104,1.780346
18876569,8516,32767,-6166,-6,-85,-20,2.952929,2.908329,1.779910
18892195,8582,32767,-6206,-23,-67,-13,2.952602,2.908490,1.779106
18907822,8530,32767,-6206,-11,-60,-6,2.952317,2.908429,1.778736
18923448,8434,32767,-6248,7,-60,-6,2.951875,2.908355,1.778143
18939075,8416,32767,-6340,38,-66,3,2.951659,2.908232,1.778195
18954702,8394,32767,-6332,55,-76,5,2.951333,2.908072,1.778769
18970328,8502,32767,-6198,44,-78,4,2.951158,2.907924,1.779368
18985955,8514,32767,-6178,31,-68,1,2.950734,2.907688,1.779946
19001581,8500,32767,-6222,0,-61,-6,2.950505,2.907582,1.780020
19017206,8590,32767,-6330,-31,-51,-10,2.950064,2.907507,1.779428
19032832,8562,32767,-6336,-17,-44,-14,2.949441,2.907258,1.778626
19048457,8476,32767,-6288,-1,-41,-16,2.949362,2.907334,1.778225
19064084,8464,32767,-6210,24,-55,-2,2.949180,2.907351,1.778048
19079710,8458,32767,-6252,35,-65,-1,2.948963,2.907233,1.778180
19095336,8526,32767,-6348,24,-51,-9,2.948631,2.907068,1.778479
19110961,8472,32767,-6318,16,-47,-14,2.948388,2.906982,1.778655
19126588,8418,32767,-6324,7,-51,-20,2.948427,2.907124,1.778622
19142214,8390,32767,-6184,6,-52,-17,2.948466,2.907262,1.778509
19157841,8498,32767,-6230,7,-58,-17,2.948254,2.907312,1.778259
19173468,8520,32767,-6234,9,-55,-18,2.948124,2.907455,1.778026
19189095,8520,32767,-6254,4,-56,-17,2.948068,2.907515,1.777917
19204721,8464,32767,-6186,1,-46,-9,2.947856,2.907565,1.777666
19220347,8488,32767,-6244,24,-50,1,2.947701,2.907549,1.777444
19235973,8470,32767,-6308,31,-60,1,2.947281,2.907289,1.777529
19251599,8464,32767,-6224,14,-61,-3,2.947082,2.907154,1.777757
19267225,8528,32767,-6130,-6,-54,-5,2.946696,2.907036,1.777691
19282851,8466,32767,-6222,-17,-35,-12,2.946192,2.906842,1.776981
19298478,8366,32767,-6256,-21,-39,-18,2.946033,2.906823,1.776562
19314104,8456,32767,-6130,1,-49,-18,2.945868,2.906985,1.775782
19329729,8462,32767,-6204,38,-59,-10,2.945825,2.907034,1.775731
19345356,8612,32767,-6208,53,-51,-1,2.945687,2.907027,1.776218
19360983,8542,32767,-6234,44,-37,-8,2.945441,2.906779,1.776976
19376610,8356,32767,-6196,15,-30,-19,2.945333,2.906717,1.777003
19392237,8320,32767,-6190,-21,-48,-28,2.945386,2.906838,1.776868
19407863,8448,32767,-6270,-17,-64,-24,2.945465,2.907279,1.776021
19423488,8596,32767,-6266,20,-63,-15,2.945470,2.907630,1.775472
19439114,8526,32767,-6198,31,-57,-9,2.945430,2.907682,1.775617
19454740,8458,32767,-6186,15,-51,-5,2.945110,2.907502,1.775895
19470366,8360,32767,-6182,0,-48,-15,2.944876,2.907396,1.775853
19485993,8334,32767,-6154,-9,-62,-28,2.944746,2.907532,1.775422
19501619,8400,32767,-6222,-20,-67,-36,2.944919,2.907882,1.775072
19517246,8448,32767,-6240,-9,-64,-26,2.945086,2.908418,1.774438
19532872,8356,32767,-6162,27,-66,-9,2.945097,2.908586,1.774250
19548499,8488,32767,-6176,26,-64,-8,2.944924,2.908608,1.774465
19564125,8620,32767,-6316,21,-55,-14,2.944672,2.908538,1.774781
19579752,8754,32767,-6368,13,-46,-17,2.944550,2.908497,1.774910
19595378,8662,32767,-6494,-17,-19,-17,2.944129,2.908231,1.774799
19611005,8386,32767,-6336,6,-3,-8,2.943808,2.908023,1.774347
19626631,8354,32767,-6288,35,-10,-5,2.943631,2.907852,1.774336
19642257,8448,32767,-6474,30,-5,-12,2.943564,2.907748,1.774494
19657884,8544,32767,-6438,20,8,-22,2.943514,2.907628,1.774748
19673511,8476,32767,-6258,16,31,-26,2.943489,2.907466,1.774681
19689137,8472,32767,-6394,24,42,-27,2.943497,2.907451,1.774542
19704763,8504,32767,-6524,18,51,-36,2.943605,2.907319,1.774404
19720389,8440,32767,-6554,7,61,-39,2.943738,2.907348,1.774333
19736015,8438,32767,-6360,4,78,-45,2.944098,2.907476,1.773910
19751641,8476,32767,-6458,1,94,-54,2.944320,2.907576,1.773440
19767268,8632,32767,-6596,-13,103,-61,2.944875,2.907837,1.772591
19782893,8774,32767,-6592,-14,121,-70,2.945192,2.908010,1.772038
19798520,8652,32767,-6586,-12,169,-93,2.945889,2.908285,1.771018
19814145,8566,32767,-6720,-24,205,-112,2.946901,2.908747,1.769724
19829771,8688,32767,-6866,-12,250,-117,2.947750,2.909232,1.768960
19845397,8708,32767,-6992,46,294,-127,2.949459,2.910015,1.767857
19861024,8604,32767,-6992,103,332,-121,2.951551,2.910593,1.768183
19876651,8400,32767,-7052,153,366,-88,2.952512,2.910629,1.768919
19892277,8372,32767,-7324,157,409,-80,2.953453,2.910502,1.769783
19907903,8628,32767,-7292,138,466,-95,2.955247,2.909978,1.771558
19923530,9148,32767,-7410,54,561,-118,2.956156,2.909686,1.772036
19939157,9168,32767,-7398,-22,673,-128,2.957640,2.908846,1.771296
19954783,8626,32767,-7338,-86,775,-128,2.958490,2.907470,1.767774
19970409,8164,32767,-7354,-138,835,-122,2.958889,2.906860,1.765216
19986034,8014,32767,-7384,-146,861,-131,2.959638,2.905803,1.758835
20001660,8400,32767,-7424,-159,893,-157,2.960284,2.905601,1.755508
20017287,8834,32767,-7310,-151,952,-172,2.961555,2.905196,1.748862
20032913,8880,32767,-6926,-98,1037,-193,2.962192,2.904972,1.745497
20048540,8488,32767,-6764,-78,1117,-209,2.963816,2.904482,1.739274
20064166,7844,32767,-7016,-137,1188,-248,2.966252,2.904869,1.732502
20079793,7912,32767,-6978,-127,1211,-292,2.967792,2.905594,1.728600
20095420,8130,32767,-6740,-23,1229,-301,2.971946,2.907933,1.721711
20111046,8148,32767,-6394,105,1272,-283,2.974406,2.909019,1.719457
20126672,7860,32767,-6290,198,1299,-270,2.979887,2.910697,1.716967
20142297,7536,32767,-6498,229,1308,-252,2.983038,2.911526,1.716513
20157923,7690,32767,-6986,200,1322,-254,2.989637,2.912981,1.716350
20173549,8174,32767,-7140,162,1355,-293,2.992826,2.913661,1.716004
20189176,7944,32767,-6626,124,1430,-320,2.999689,2.915481,1.714862
20204803,7254,32767,-6636,22,1459,-279,3.005864,2.917437,1.711787
20220430,6798,32767,-6640,-33,1459,-243,3.010040,2.918970,1.706378
20236057,7088,32767,-6860,-31,1430,-260,3.012042,2.919922,1.703483
20251683,7422,32767,-6724,8,1428,-268,3.014264,2.920883,1.701004
20267309,7434,32767,-6406,62,1451,-220,3.018921,2.922537,1.696795
20282935,6982,32767,-6338,70,1475,-179,3.021049,2.922818,1.695119
20298561,6494,32767,-6234,57,1450,-171,3.024979,2.923049,1.691734
20314188,7058,32767,-6314,67,1365,-170,3.027109,2.923412,1.690037
20329814,7624,32767,-6082,76,1345,-190,3.031565,2.924113,1.687239
20345441,7698,32767,-6168,34,1369,-217,3.036056,2.924759,1.684592
20361068,7226,32767,-6172,-36,1381,-192,3.037912,2.925153,1.682727
20376695,6812,32767,-6036,-63,1324,-161,3.040207,2.925873,1.677837
20392321,7300,32767,-6256,-109,1235,-210,3.041086,2.926362,1.675232
20407948,7970,32767,-6338,-172,1191,-256,3.042874,2.928326,1.669749
20423574,8204,32767,-6288,-232,1246,-282,3.043210,2.929519,1.666515
20439199,7388,32767,-5694,-152,1314,-231,3.042862,2.932045,1.659139
20454824,6842,32767,-5346,88,1226,-53,3.044389,2.932803,1.654844
20470450,7372,32767,-5584,79,1166,-6,3.046337,2.932287,1.654375
20486077,7580,32767,-5792,-19,1174,-2,3.048582,2.930171,1.653154
20501702,7196,32767,-5956,-165,1193,19,3.048148,2.928941,1.651547
20517329,6674,32767,-5912,-294,1170,15,3.042605,2.926532,1.645320
20532956,6950,32767,-6224,-449,1086,-43,3.038059,2.925746,1.641041
20548582,7690,32767,-6326,-610,1058,-79,3.024374,2.925719,1.629580
20564209,8084,32767,-5912,-589,1088,-35,3.015030,2.925748,1.622748
20579835,7668,32767,-5870,-500,1132,10,2.994785,2.924464,1.609736
20595461,7442,32767,-5940,-464,1131,13,2.975740,2.923003,1.598496
20611088,7616,32767,-5596,-370,1124,27,2.966796,2.922525,1.593436
20626714,8008,32767,-5554,-244,1140,40,2.951989,2.921238,1.585657
20642339,8074,32767,-5608,-258,1173,21,2.946291,2.920403,1.582933
20657965,7696,32767,-5402,-312,1166,39,2.932422,2.919057,1.576698
20673591,7758,32767,-5308,-394,1148,51,2.923630,2.918364,1.573035
20689216,8358,32767,-5060,-406,1205,5,2.900984,0.224368,1.564296
20704841,8954,32767,-4602,-402,1338,-62,2.874416,0.224398,1.554875
20720468,8952,32767,-4726,-519,1415,-31,2.858147,0.224138,1.549629
20736094,8294,32767,-4632,-643,1457,35,2.812511,0.224298,1.536533
20751720,8098,32767,-4342,-627,1496,70,2.783306,0.224621,1.529052
20767346,7966,32767,-3998,-645,1531,33,2.715751,0.224946,1.513963
20782972,7546,32767,-4174,-676,1509,77,2.676494,0.224596,1.506220
20798598,6938,32767,-4172,-720,1426,124,2.585655,0.224308,1.490581
20814224,6660,32767,-3678,-761,1329,121,2.535413,0.224215,1.482798
20829850,7160,32767,-3444,-794,1272,64,2.424759,0.223331,1.466724
20845476,7664,32767,-2578,-820,1251,11,2.301437,0.221026,1.450062
20861101,7516,32767,-2512,-869,1172,15,2.236300,0.219706,1.441653
20876727,7508,32767,-2276,-907,1097,1,2.104169,0.216959,1.424094
20892353,7906,32767,-1414,-770,1071,-35,2.040823,0.215433,1.415602
20907980,8540,32767,-920,-643,1091,-61,1.922557,0.211689,1.401409
20923607,8324,32767,-1048,-646,1098,-52,1.864490,0.209782,1.395356
20939234,7826,32767,-1224,-535,1052,1,1.750064,0.206216,1.383776
20954861,7642,32767,-812,-333,1016,7,1.697081,0.204692,1.379737
20970488,7730,32767,-538,-227,976,-33,1.595868,0.201610,1.375785
20986114,7698,32767,-680,-282,920,-32,1.499392,0.198027,1.373413
21001739,7678,32767,-802,-360,872,-42,1.454718,0.196415,1.371817
21017366,7552,32767,-680,-445,866,-76,1.371409,0.192908,1.367446
21032993,7312,32767,-490,-546,821,-97,1.333600,0.190933,1.364353
21048619,7370,32767,-552,-604,751,-109,1.269142,0.186429,1.356426
21064245,7682,32767,-612,-639,738,-135,1.218051,0.181835,1.347849
21079871,7666,32767,-412,-663,761,-129,1.194453,0.179579,1.343354
21095498,6924,32767,168,-657,707,-117,3.140747,0.017383,-0.003303
21111125,6522,32767,630,-626,617,-141,1.133902,0.172767,1.329565
21126751,6734,32767,1106,-587,571,-145,1.106489,0.167602,1.321435
21142377,7244,32767,976,-533,559,-123,1.093850,0.165320,1.317796
21158004,7444,32767,738,-578,553,-115,1.069401,0.161554,1.311625
21173630,7140,32767,1014,-612,548,-125,1.059022,0.159889,1.308107
21189256,6554,32767,1466,-585,543,-136,1.039627,0.156140,1.301005
21204883,6436,32767,1602,-513,502,-144,1.030446,0.154015,1.297624
21220510,6738,32767,1480,-374,451,-142,1.012971,0.149639,1.292962
21236135,7126,32767,1392,-151,432,-141,0.991266,0.146117,1.292850
21251760,6938,32767,1688,-15,409,-137,0.977574,0.144547,1.294692
21267386,6368,32767,2054,96,378,-101,0.946952,0.141779,1.300709
21283012,5982,32767,2042,156,337,-62,0.929871,0.140615,1.304602
21298637,5958,32767,1790,114,275,-45,0.896459,0.138991,1.313084
21314262,6212,32767,1530,35,208,-42,0.869512,0.138265,1.320395
21329887,6520,32767,1226,-8,169,-50,0.859271,0.138251,1.323390
21345513,6422,32767,1478,-46,140,-65,0.849205,0.138108,1.326276
21361139,6268,32767,1686,-66,96,-72,0.833714,0.137980,1.331105
21376766,6296,32767,1722,-29,96,-42,0.820810,0.137773,1.335518
21392392,6264,32767,1468,42,63,-20,0.813172,0.138011,1.338107
21408018,6160,32767,1324,122,19,-27,0.795392,0.138956,1.344904
21423644,6110,32767,1304,203,-30,-13,0.785182,0.139496,1.349224
21439270,6158,32767,1156,217,-64,5,0.763703,0.140925,1.359207
21454897,6204,32767,1106,145,-68,1,0.752893,0.141847,1.364257
21470523,6172,32767,1056,74,-89,-3,0.735187,0.143727,1.372712
21486150,6212,32767,898,76,-113,4,0.729222,0.144534,1.376201
21501776,6220,32767,686,116,-118,2,0.717362,0.146398,1.383176
21517402,6562,32767,600,174,-105,-1,0.701109,0.148230,1.391403
21533028,6664,32767,632,224,-78,9,0.690128,0.149215,1.395991
21548654,6690,32767,466,244,-80,7,0.663827,0.151386,1.405782
21564281,6712,32767,300,268,-71,-14,0.633194,0.153142,1.416163
21579908,6770,32767,240,321,-68,-7,0.615744,0.153923,1.421724
21595534,6794,32767,214,343,-50,18,0.596181,0.154831,1.427513
21611159,6430,32767,100,192,-11,-7,0.554506,0.156813,1.438661
21626785,6282,32767,10,63,-29,-18,0.523255,0.157974,1.446394
21642412,6302,32767,-74,-44,-49,-47,0.514143,0.158383,1.448811
21658037,6340,32767,-236,-99,-59,-72,0.507188,0.158409,1.451739
21673662,6386,32767,-380,-77,-51,-85,0.506186,0.158168,1.452701
21689287,6516,32767,-168,-10,-28,-105,0.499324,0.157507,1.455625
21704914,6568,32767,-38,78,30,-110,0.481467,0.156538,1.460081
21720540,6614,32767,194,160,76,-127,0.466883,0.155902,1.463068
21736166,6742,32767,146,209,86,-155,0.450008,0.155144,1.466299
21751792,6678,32767,108,201,83,-102,0.411338,0.153410,1.473683
21767418,6386,32767,146,54,112,-101,0.375844,0.152619,1.479919
21783044,6022,32767,314,-119,111,-92,0.366017,0.152035,1.481431
21798670,6070,32767,378,-244,83,-74,0.366138,0.151043,1.480656
21814296,6276,32767,336,-289,73,-93,0.373142,0.150645,1.479043
21829921,6308,32767,352,-251,64,-99,0.389357,0.149755,1.475412
21845548,6118,32767,460,-178,70,-85,0.395401,0.149260,1.474080
21861174,5988,32767,776,-76,82,-81,0.397811,0.148588,1.473143
21876801,5936,32767,774,20,65,-62,0.393875,0.148107,1.473625
21892428,6080,32767,402,72,65,-29,0.380418,0.147576,1.475873
21908054,6066,32767,368,132,81,-47,0.357621,0.147867,1.479819
21923680,5760,32767,670,209,61,-60,0.342066,0.147832,1.482613
21939306,5564,32767,880,199,18,-35,0.307509,0.147427,1.489044
21954931,5518,32767,786,126,-23,-35,0.282130,0.147385,1.494116
21970556,5712,32767,378,108,-40,-26,0.272427,0.147390,1.496192
21986182,5988,32767,118,114,-33,-18,0.261498,0.147593,1.498428
22001807,6076,32767,262,96,-4,-26,0.239326,0.148127,1.502885
22017433,5850,32767,570,91,-14,-17,0.217380,0.148842,1.506909
22033060,5644,32767,644,55,-34,-22,0.208577,0.149051,1.508574
22048686,5532,32767,496,43,-75,-17,0.195649,0.149419,1.511203
22064313,5796,32767,70,93,-92,-10,0.190437,0.149561,1.512500
22079939,6052,32767,-234,166,-66,-7,0.170078,0.150196,1.516667
22095565,6088,32767,-288,211,-46,-10,0.153807,0.150699,1.519638
22111192,5920,32767,-40,215,-52,-14,0.117167,0.151483,1.526056
22126818,5866,32767,-186,151,-72,-23,0.099464,0.151875,1.529149
22142444,5944,32767,-460,85,-77,-20,0.074466,0.152142,1.533701
22158070,5930,32767,-390,89,-68,-19,0.054688,0.152694,1.537239
22173696,6046,32767,-420,72,-45,-31,0.044924,0.152899,1.538943
22189322,5946,32767,-302,64,-37,-22,0.027142,0.153269,1.541955
22204949,5956,32767,-458,50,-38,-23,0.011275,0.153610,1.544579
22220575,6018,32767,-450,19,-23,-24,0.004797,0.153878,1.545641
22236201,5950,32767,-368,-35,-10,-30,0.000234,0.153941,1.546396
22251828,5794,32767,-286,-105,-9,-45,-0.000756,0.154019,1.546609
22267454,5838,32767,-266,-133,-12,-56,0.010621,0.153650,1.544948
22283080,5860,32767,-68,-70,0,-60,0.015537,0.153466,1.544242
22298706,5838,32767,94,-42,15,-53,0.018625,0.153016,1.543859
22314332,5742,32767,188,-29,25,-36,0.019776,0.152812,1.543677
22329959,5548,32767,320,17,3,-12,0.018038,0.152703,1.543904
22345586,5486,32767,310,17,-40,-8,0.014457,0.152934,1.544445
22361213,5710,32767,226,-19,-68,-8,0.010239,0.153122,1.545249
22376839,5860,32767,102,-49,-69,-5,0.009815,0.153390,1.545417
22392464,6078,32767,-228,-70,-51,-16,0.011959,0.153996,1.545238
22408091,6026,32767,-302,-63,-22,-22,0.014812,0.154597,1.544916
22423718,5874,32767,-100,-9,-9,-26,0.014841,0.154844,1.544916
22439345,5782,32767,98,38,-2,-38,0.009253,0.155036,1.545785
22454971,5672,32767,424,42,-7,-36,0.004100,0.154911,1.546603
22470597,5570,32767,414,52,-31,-26,-0.004544,0.154654,1.548001
22486222,5666,32767,36,20,-51,-19,-0.008855,0.154644,1.548706
22501849,5852,32767,-186,-7,-35,-16,-0.015034,0.154847,1.549756
22517474,5638,32767,54,5,-26,-12,-0.017835,0.154949,1.550204
22533101,5468,32767,242,-33,-46,-11,-0.022267,0.155309,1.550909
22548726,5576,32767,-2,-43,-61,-11,-0.020174,0.155422,1.550751
22564353,5664,32767,-96,22,-60,-8,-0.019887,0.155433,1.550808
22579980,5684,32767,52,62,-56,-11,-0.029219,0.155733,1.552308
22595607,5722,32767,146,52,-49,-7,-0.035903,0.155924,1.553321
22611234,5780,32767,-18,37,-50,-13,-0.046966,0.156416,1.554968
22626861,5762,32767,64,36,-51,-16,-0.051158,0.156469,1.555630
22642487,5758,32767,38,38,-49,-6,-0.060616,0.156810,1.557042
22658113,5642,32767,56,27,-59,-11,3.141248,-0.000056,0.346844
22673739,5700,32767,-112,-4,-65,-11,-0.072873,0.157306,1.558873
22689365,5752,32767,-108,-23,-58,-16,-0.075586,0.157470,1.559349
22704991,5692,32767,-26,-37,-53,-22,-0.075649,0.157598,1.559388
22720618,5756,32767,12,-40,-54,-23,-0.072885,0.157577,1.559118
22736244,5726,32767,20,-13,-60,-14,-0.072418,0.157636,1.559106
22751871,5694,32767,202,22,-56,-14,-0.073820,0.157840,1.559380
22767498,5616,32767,68,32,-64,-17,-0.077027,0.157932,1.559860
22783124,5658,32767,36,23,-58,-5,-0.084482,0.158010,1.560940
22798750,5678,32767,4,12,-52,-13,-0.091165,0.158312,1.561883
22814376,5742,32767,124,1,-54,-15,-0.093572,0.158393,1.562230
22830002,5718,32767,140,-17,-63,-11,-0.095663,0.158421,1.562574
22845628,5756,32767,26,-24,-61,-13,-0.094460,0.158711,1.562483
22861254,5700,32767,8,-8,-47,-11,-0.094143,0.158778,1.562461
22876883,5574,32767,166,32,-58,-1,-0.095244,0.158911,1.562615
22892508,5642,32767,82,56,-72,-5,-0.103309,0.159218,1.563692
22908135,5784,32767,84,63,-66,-6,-0.109944,0.159339,1.564541
22923761,5798,32767,42,55,-56,2,-0.123199,0.159680,1.566224
22939387,5666,32767,-82,35,-51,-9,-0.134300,0.160187,1.567583
22955014,5652,32767,74,32,-56,-8,-0.138564,0.160220,1.568114
22970641,5652,32767,72,36,-66,1,-0.146879,0.160460,1.569130
22986266,5712,32767,-6,36,-68,-4,-0.149844,0.160660,1.569481
23001893,5814,32767,-180,23,-60,-6,-0.159516,0.160906,1.570630
23017519,5762,32767,-112,19,-51,-8,-0.162090,2.980548,1.570919
23033146,5650,32767,104,24,-46,-9,-0.168614,2.980327,1.571669
23048773,5592,32767,104,30,-59,-9,-0.174148,2.980235,1.572304
23064399,5680,32767,54,36,-66,-5,-0.177204,2.980160,1.572654
23080025,5804,32767,12,39,-65,-4,-0.184901,2.979992,1.573495
23095651,5782,32767,-76,22,-53,-3,-0.189246,2.979910,1.573977
23111277,5616,32767,-16,18,-48,-5,-0.194863,2.979516,1.574539
23126902,5680,32767,-84,23,-59,-5,-0.197575,2.979501,1.574825
23142529,5632,32767,-140,49,-66,-1,-0.205029,2.979284,1.575597
23158155,5746,32767,-142,79,-66,0,-0.211275,2.979249,1.576263
23173781,5674,32767,58,70,-65,-1,-0.228384,2.978923,1.578084
23189407,5648,32767,-14,37,-67,0,-0.241427,2.978615,1.579403
23205033,5672,32767,-100,6,-70,-9,-0.244686,2.978481,1.579693
23220659,5772,32767,-170,21,-68,-4,-0.247961,2.978484,1.579937
23236285,5872,32767,-170,31,-53,-8,-0.256063,2.978211,1.580651
23251912,5756,32767,-48,30,-41,-10,-0.259053,2.978077,1.580922
23267539,5636,32767,-94,19,-43,-8,-0.261426,2.978013,1.581139
23283165,5640,32767,-22,-1,-54,-10,-0.265571,2.978002,1.581466
23298792,5704,32767,-94,-8,-70,-12,-0.264731,2.977956,1.581324
23314419,5758,32767,-82,8,-53,-11,-0.265192,2.977969,1.581199
23330046,5664,32767,44,32,-51,-8,-0.268545,2.977916,1.581467
23345671,5698,32767,10,41,-60,-8,-0.271627,2.977842,1.581694
23361297,5686,32767,4,36,-57,-7,-0.279860,2.977825,1.582411
23376924,5678,32767,-86,37,-57,-1,-0.283340,2.977814,1.582698
23392551,5714,32767,-248,40,-62,-1,-0.291292,2.977614,1.583340
23408176,5724,32767,-196,45,-62,-5,-0.297655,2.977472,1.583878
23423802,5774,32767,-130,39,-57,-5,-0.309307,2.977314,1.584836
23439428,5736,32767,-174,-8,-56,-12,-0.313693,2.977191,1.585056
23455054,5650,32767,-68,-4,-53,-8,-0.313039,2.977146,1.584914
23470680,5596,32767,-38,15,-68,-3,-0.312695,2.977107,1.584700
23486307,5732,32767,-116,17,-69,-4,-0.314332,2.976988,1.584745
23501932,5770,32767,-76,21,-63,-5,-0.319872,2.976929,1.585045
23517558,5740,32767,-202,17,-53,-5,-0.323497,2.976868,1.585283
23533183,5744,32767,-124,23,-48,-5,-0.327617,2.976745,1.585482
23548810,5786,32767,-226,26,-56,-1,-0.330387,2.976620,1.585641
23564436,5746,32767,-238,0,-54,-15,-0.337718,2.976366,1.586093
23580062,5708,32767,-134,-10,-55,-9,-0.339005,2.976444,1.586007
23595688,5574,32767,-36,-27,-50,-11,-0.338437,2.976398,1.585866
23611314,5616,32767,84,-30,-49,-14,-0.330761,2.976563,1.584977
23626940,5708,32767,20,-27,-52,-8,-0.325892,2.976653,1.584471
23642567,5736,32767,-138,-12,-55,-9,-0.318829,2.976578,1.583695
23658194,5752,32767,-158,24,-51,-8,-0.320005,2.976517,1.583677
23673821,5624,32767,-10,41,-53,-4,-0.326583,2.976453,1.584069
23689447,5636,32767,112,19,-52,-9,-0.331729,2.976387,1.584421
23705074,5618,32767,0,0,-63,-3,-0.334103,2.976459,1.584449
23720701,5772,32767,-250,33,-64,3,-0.336410,2.976283,1.584364
23736327,5738,32767,-278,42,-46,-4,-0.341787,2.976218,1.584716
23751952,5602,32767,-184,44,-55,-4,-0.355846,2.976070,1.585656
23767577,5570,32767,10,22,-68,-6,-0.362221,2.975937,1.586063
23783202,5632,32767,54,-12,-79,-11,-0.367232,2.976076,1.586190
23798828,5814,32767,6,-45,-83,-7,-0.365173,2.976150,1.585827
23814455,5946,32767,-298,-46,-64,-6,-0.355104,2.976024,1.584675
23830082,5764,32767,-168,6,-41,-14,-0.352017,2.975748,1.584207
23845708,5606,32767,140,44,-45,-9,-0.354329,2.975803,1.584297
23861334,5558,32767,228,55,-57,-5,-0.365171,2.975855,1.584931
23876961,5596,32767,76,31,-64,-1,-0.373931,2.975916,1.585338
23892588,5750,32767,-168,31,-65,6,-0.378542,2.975735,1.585563
23908214,5720,32767,-210,43,-55,7,-0.384430,2.975545,1.585799
23923841,5696,32767,-154,63,-53,0,-0.401529,2.975281,1.586747
23939467,5708,32767,-146,60,-63,2,-0.410779,2.975269,1.587281
23955094,5810,32767,-360,39,-58,-2,-0.429256,2.974949,1.588294
23970720,5784,32767,-202,12,-42,-6,-0.443994,2.974759,1.589054
23986346,5704,32767,-138,-28,-46,-5,-0.444180,2.974701,1.588904
24001972,5700,32767,-156,-41,-56,-12,-0.436374,2.974678,1.588065
24017599,5744,32767,-68,-26,-64,-10,-0.430808,2.974699,1.587501
24033225,5738,32767,-36,-12,-56,-7,-0.425510,2.974731,1.586751
24048851,5706,32767,54,1,-55,-5,-0.424405,2.974751,1.586555
24064478,5790,32767,-142,3,-54,-6,-0.423096,2.974649,1.586152
24080104,5732,32767,-162,46,-48,-3,-0.425938,2.974651,1.586193
24095729,5688,32767,-66,53,-56,-2,-0.441511,2.974519,1.586889
24111355,5654,32767,-52,46,-64,-5,-0.460216,2.974385,1.587719
24126982,5688,32767,-94,30,-68,0,-0.460216,2.974385,1.587719
24142608,5760,32767,-270,15,-62,-9,-0.482417,2.974329,1.588443
24158233,5800,32767,-244,29,-50,-7,-0.487767,2.974398,1.588563
24173860,5726,32767,-166,37,-47,-8,-0.503132,2.974393,1.589139
24189486,5576,32767,-112,4,-47,-12,-0.508911,2.974336,1.589359
24205112,5530,32767,-78,-19,-59,-9,-0.510499,2.974473,1.589074
24220739,5714,32767,-158,-28,-70,-7,-0.507651,2.974624,1.588338
24236366,5800,32767,-190,-19,-59,-10,-0.505065,2.974704,1.587964
24251993,5766,32767,-12,4,-52,-5,-0.505284,2.974726,1.587461
24267620,5722,32767,44,15,-56,-7,-0.507175,2.974610,1.587377
24283247,5728,32767,14,34,-64,0,-0.515589,2.974563,1.587412
24298872,5700,32767,-212,34,-66,2,-0.524497,2.974508,1.587652
24314499,5752,32767,-250,25,-60,-2,-0.546552,2.974386,1.588257
24330125,5614,32767,-82,28,-59,-4,-0.553704,2.974266,1.588419
24345751,5662,32767,0,18,-71,-4,-0.571062,2.974270,1.588769
24361376,5794,32767,-106,13,-71,-3,-0.587098,2.974281,1.588894
24377002,5812,32767,-102,11,-61,-3,-0.592950,2.974167,1.588830
24392628,5794,32767,-148,-2,-57,-4,-0.604849,2.974056,1.588809
24408255,5740,32767,-194,6,-54,-4,-0.606905,2.974008,1.588669
24423882,5690,32767,-82,34,-51,-2,-0.620671,2.973894,1.588760
24439508,5776,32767,-80,27,-59,-9,-0.632202,2.973894,1.589049
24455135,5726,32767,-70,13,-55,-6,-0.648794,2.973904,1.589153
24470762,5654,32767,-118,8,-70,-5,-0.655680,2.973908,1.589194
24486389,5716,32767,-88,16,-72,-5,-0.669382,2.973865,1.589117
24502016,5806,32767,-170,21,-68,-5,-0.692064,2.973876,1.589241
24517643,5874,32767,-142,23,-51,-8,-0.714790,2.973763,1.589467
24533270,5768,32767,-72,26,-42,-7,-0.724569,2.973700,1.589565
24548897,5698,32767,-160,23,-52,-5,-0.728633,2.973713,1.589595
24564522,5784,32767,-128,13,-53,-10,-0.751375,2.973710,1.589802
24580147,5670,32767,-70,-2,-62,-8,-0.759068,2.973781,1.589788
24595774,5686,32767,-76,-1,-63,-7,-0.772592,2.973741,1.589464
24611399,5756,32767,-170,-4,-53,-14,-0.786210,2.973999,1.589077
24627025,5708,32767,-88,26,-57,-2,-0.791939,2.973950,1.588937
24642651,5718,32767,-120,26,-55,-9,-0.820782,2.973891,1.589211
24658278,5650,32767,-30,11,-58,-9,-0.837877,2.973895,1.589386
24673904,5710,32767,-102,-2,-64,-2,-0.853834,2.973972,1.589166
24689531,5752,32767,-120,-6,-64,-6,-0.866104,2.973980,1.588981
24705157,5788,32767,-58,-1,-52,-7,-0.887208,2.973938,1.588657
24720784,5724,32767,-114,4,-53,-6,-0.895928,2.973877,1.588509
24736410,5692,32767,-142,32,-55,-6,-0.920911,2.973766,1.588354
24752036,5724,32767,18,50,-55,-7,-0.961545,2.973838,1.588874
24767661,5728,32767,46,42,-59,-1,-0.988599,2.973897,1.589230
24783287,5816,32767,-220,8,-57,-6,-1.030142,2.973783,1.589570
24798912,5910,32767,-288,13,-46,-5,-1.043533,2.973666,1.589487
24814539,5748,32767,-188,29,-40,-6,-1.080344,2.973553,1.589693
24830166,5606,32767,-248,28,-50,-10,-1.098687,2.973433,1.589971
24845793,5732,32767,-126,31,-50,-12,-1.134560,2.973628,1.590234
24861420,5808,32767,-96,32,-44,-5,-1.157030,2.973687,1.590456
24877047,5758,32767,-154,39,-44,0,-1.193390,2.973640,1.590718
24892673,5650,32767,-206,18,-49,-8,-1.232345,2.973459,1.591094
24908299,5592,32767,-126,4,-59,-9,-1.251158,2.973530,1.591079
24923926,5630,32767,-88,-1,-71,-10,-1.303238,2.973721,1.590881
24939552,5778,32767,-94,-20,-67,-14,-1.327329,2.973794,1.590752
24955178,5904,32767,-152,-23,-50,-9,-1.377186,2.973808,1.590003
24970804,5748,32767,-66,-19,-43,-9,-1.394586,2.973813,1.589551
24986430,5562,32767,42,2,-53,-8,-1.428116,2.973766,1.588826
25002056,5622,32767,-150,25,-72,-5,-1.492074,2.973954,1.588740
25017682,5752,32767,-302,48,-62,-7,-1.533341,2.974027,1.588992
25033307,5788,32767,-254,65,-50,0,-1.601616,2.973972,1.589893
25048934,5736,32767,-126,47,-52,2,-1.620874,2.973800,1.590484
25064560,5694,32767,-92,18,-55,-1,-1.675547,2.973624,1.591128
25080187,5672,32767,-208,1,-60,-6,-1.705822,2.973563,1.591114
25095814,5754,32767,-182,-15,-60,-9,-1.763062,2.973640,1.590780
25111441,5696,32767,-104,-8,-55,-12,-1.802382,2.973701,1.590529
25127068,5660,32767,24,8,-59,-10,-1.863425,2.973844,1.590138
25142694,5708,32767,8,24,-65,0,-1.929075,2.973910,1.589928
25158320,5768,32767,-48,32,-66,0,-1.963995,2.973850,1.590048
25173946,5756,32767,-260,18,-65,1,-2.018450,2.973687,1.590342
25189572,5800,32767,-318,15,-54,-2,-2.050543,2.973628,1.590462
25205199,5762,32767,-190,39,-47,-2,-2.089538,2.973463,1.590736
25220825,5702,32767,-200,31,-55,0,-2.111389,2.973403,1.590968
25236451,5718,32767,-178,12,-54,-4,-2.150578,2.973295,1.591310
25252078,5732,32767,-86,-2,-65,-6,-2.169744,2.973300,1.591351
25267705,5802,32767,-210,-24,-60,-7,-2.232387,2.973433,1.590971
25283332,5714,32767,-124,-25,-41,-12,-2.298106,2.973317,1.590212
25298959,5606,32767,-26,1,-48,-8,-2.322882,2.973384,1.589816
25314586,5638,32767,-74,24,-66,-3,-2.368842,2.973569,1.589595
25330212,5816,32767,-190,32,-66,-3,-2.390286,2.973510,1.589715
25345839,5824,32767,-94,23,-55,-7,-2.423605,2.973405,1.590077
25361465,5742,32767,-56,8,-46,-4,-2.435897,2.973355,1.590185
25377092,5690,32767,-168,1,-52,-6,-2.474535,2.973297,1.589967
25392718,5666,32767,-272,24,-54,-5,-2.506819,2.973304,1.589803
25408344,5728,32767,-214,37,-62,-3,-2.511855,2.973312,1.590091
25423970,5808,32767,-84,10,-62,-11,-2.533160,2.973331,1.590576
25439596,5744,32767,-66,7,-55,-8,-2.550202,2.973336,1.590504
25455223,5646,32767,-94,4,-54,-2,-2.583765,2.973343,1.590228
25470848,5664,32767,-96,-23,-58,-10,-2.599492,2.973348,1.590156
25486475,5776,32767,-196,-7,-66,-8,-2.647181,2.973528,1.589461
25502102,5766,32767,-170,28,-55,-3,-2.663462,2.973412,1.589402
25517728,5702,32767,-146,31,-50,-6,-2.673252,2.973426,1.589732
25533355,5702,32767,-88,17,-58,-3,-2.685835,2.973374,1.590007
25548981,5732,32767,-74,-13,-60,-11,-2.693645,2.973391,1.590057
25564607,5714,32767,-74,-13,-61,-14,-2.730823,2.973507,1.589554
25580233,5736,32767,-18,-4,-57,-5,-2.745605,2.973574,1.589291
25595860,5700,32767,2,25,-59,-7,-2.773801,2.973636,1.588967
25611486,5732,32767,-124,30,-62,-2,-2.778275,2.973587,1.589076
25627111,5764,32767,-254,39,-64,-1,-2.787571,2.973472,1.589430
25642738,5770,32767,-192,48,-59,-4,-2.785514,2.973486,1.589852
25658365,5740,32767,-202,36,-54,-6,-2.782877,2.973324,1.590633
25673992,5694,32767,-132,9,-55,-9,-2.786181,2.973344,1.591097
25689619,5648,32767,-84,2,-62,-8,-2.796517,2.973402,1.590958
25705246,5804,32767,-104,-8,-63,-9,-2.815422,2.973477,1.590756
25720872,5748,32767,-108,-18,-53,-11,-2.829195,2.973476,1.590438
25736499,5704,32767,-130,-4,-54,-6,-2.854919,2.973595,1.589789
25752124,5722,32767,-86,12,-58,-9,-2.865265,2.973475,1.589597
25767749,5682,32767,-14,31,-70,-9,-2.875588,2.973600,1.589699
25783375,5772,32767,-140,32,-66,-6,-2.883010,2.973618,1.589936
25799000,5810,32767,-170,28,-53,-9,-2.882394,2.973509,1.590238
25814627,5710,32767,-234,35,-49,-6,-2.884364,2.973526,1.590567
25830253,5670,32767,-206,48,-55,-5,-2.882901,2.973537,1.590855
25845883,5704,32767,-170,34,-57,-7,-2.878548,2.973566,1.591565
25861509,5642,32767,-130,15,-61,-9,-2.880164,2.973565,1.591731
25877135,5710,32767,-104,-2,-66,-8,-2.890907,2.973640,1.591642
25892761,5772,32767,-70,-17,-64,-12,-2.900055,2.973643,1.591458
25908386,5748,32767,-112,-15,-58,-9,-2.924221,2.973749,1.590707
25924013,5742,32767,-174,7,-53,-10,-2.942441,2.973810,1.590124
25939638,5768,32767,-152,43,-57,-3,-2.944372,2.973874,1.590231
25955263,5788,32767,-224,40,-52,-7,-2.941287,2.973779,1.590821
25970890,5636,32767,-10,25,-49,-3,-2.938344,2.973727,1.591168
25986517,5640,32767,-144,15,-63,-4,-2.944739,2.973673,1.591197
26002143,5724,32767,-146,16,-66,-6,-2.948181,2.973744,1.591179
26017769,5800,32767,-178,26,-69,-5,-2.953873,2.973697,1.591362
26033396,5812,32767,-212,21,-58,-5,-2.956086,2.973642,1.591484
26049023,5794,32767,-212,22,-56,-9,-2.959465,2.973540,1.591714
26064649,5768,32767,-262,11,-52,-11,-2.961149,2.973493,1.591990
26080275,5734,32767,-194,9,-44,-11,-2.965620,2.973559,1.591838
26095900,5668,32767,-120,1,-46,-10,-2.972362,2.973499,1.591734
26111527,5582,32767,-22,-21,-57,-11,-2.977985,2.973741,1.591521
26127153,5666,32767,-74,-13,-70,-8,-2.995590,2.973850,1.590757
26142780,5814,32767,-152,0,-66,-11,-3.003654,2.973969,1.590445
26158405,5796,32767,-130,25,-52,-9,-3.012581,2.973909,1.590248
26174031,5756,32767,-88,44,-48,-5,-3.013263,2.973862,1.590523
26189657,5696,32767,-222,48,-50,-7,-3.010867,2.973753,1.590805
26205284,5682,32767,-158,46,-54,-9,-3.004125,2.973844,1.591559
26220911,5702,32767,-168,34,-57,-4,-3.002180,2.973859,1.591847
26236537,5682,32767,-190,20,-53,-5,-3.001662,2.973820,1.592256
26252162,5746,32767,-196,6,-52,-6,-3.004354,2.973759,1.592244
26267789,5778,32767,-270,-6,-56,-6,-3.011806,2.973697,1.592027
26283415,5800,32767,-296,1,-52,-13,-3.017432,2.973759,1.591762
26299041,5684,32767,-62,12,-49,-11,-3.022877,2.973822,1.591663
26314668,5650,32767,-68,10,-52,-8,-3.028170,2.973884,1.591565
26330294,5572,32767,-84,8,-50,-12,-3.031590,2.973949,1.591413
26345920,5714,32767,-146,6,-63,-8,-3.038224,2.974128,1.591186
26361547,5820,32767,-262,31,-63,-3,-3.041287,2.974132,1.591114
26377174,5760,32767,-172,51,-57,-3,-3.039498,2.974041,1.591592
26392801,5660,32767,-120,37,-60,-4,-3.036492,2.973932,1.592020
26408428,5688,32767,-92,23,-67,-5,-3.035502,2.973895,1.592429
26424054,5794,32767,-296,17,-64,-8,-3.037210,2.973905,1.592491
26439680,5850,32767,-356,11,-50,-9,-3.039210,2.973858,1.592654
26455307,5776,32767,-294,9,-44,-5,-3.042357,2.973805,1.592683
26470934,5672,32767,-294,-13,-43,-16,-3.043969,2.973753,1.592659
26486560,5604,32767,-78,-36,-50,-16,-3.055319,2.974031,1.591923
26502185,5584,32767,-38,-48,-58,-12,-3.063487,2.974133,1.591343
26517812,5772,32767,-126,-51,-56,-16,-3.084525,2.974326,1.589843
26533438,5860,32767,-154,-35,-51,-14,-3.093292,2.974360,1.589210
26549064,5704,32767,-36,20,-34,-8,-3.106103,2.974329,1.588306
26564689,5544,32767,-32,38,-45,-5,-3.104909,2.974401,1.588546
26580315,5562,32767,14,38,-64,-1,-3.104237,2.974291,1.588715
26595941,5728,32767,-100,45,-72,-2,-3.101101,2.974504,1.589247
26611568,5876,32767,-182,39,-61,-3,-3.099266,2.974401,1.589551
26627194,5794,32767,-262,30,-47,-4,-3.096385,2.974117,1.590096
26642821,5710,32767,-240,29,-43,-6,-3.094970,2.974076,1.590319
26658447,5660,32767,-184,30,-53,-8,-3.093002,2.974037,1.590708
26674073,5656,32767,-138,24,-60,-11,-3.091057,2.974055,1.590996
26689699,5696,32767,-162,8,-62,-9,-3.092805,2.974184,1.591094
26705325,5658,32767,-118,10,-55,-6,-3.097066,2.974189,1.590951
26720951,5674,32767,-124,5,-56,-7,-3.099158,2.974191,1.590879
26736577,5710,32767,-136,-9,-60,-12,-3.104377,2.974300,1.590598
26752204,5810,32767,-148,7,-63,-9,-3.107589,2.974418,1.590396
26767831,5742,32767,-166,40,-61,-6,-3.109787,2.974367,1.590446
26783458,5636,32767,-112,39,-61,-6,-3.108085,2.974267,1.590750
26799084,5624,32767,-132,19,-62,-3,-3.105896,2.974292,1.591224
26814710,5638,32767,-88,10,-69,-5,-3.109193,2.974357,1.591145
26830336,5718,32767,-116,15,-71,-9,-3.110020,2.974368,1.591207
26845962,5802,32767,-150,26,-65,0,-3.112155,2.974440,1.591261
26861588,5750,32767,-288,25,-58,4,-3.112873,2.974328,1.591318
26877214,5716,32767,-248,24,-53,-9,-3.111370,2.974052,1.591741
26892840,5672,32767,-128,19,-66,-11,-3.111373,2.974120,1.591847
26908467,5698,32767,-38,15,-69,-9,-3.113417,2.974193,1.591901
26924094,5508,32767,28,37,-68,-2,-3.114084,2.974192,1.591954
26939720,5494,32767,8,41,-98,5,-3.113335,2.974228,1.592324
26955346,5686,32767,-126,49,-108,-4,-3.111561,2.974217,1.592928
26970972,5812,32767,-146,63,-103,-5,-3.109325,2.974244,1.593382
26986599,5852,32767,-132,79,-90,7,-3.103050,2.974081,1.594558
27002226,5714,32767,-134,110,-88,13,-3.098236,2.973937,1.595316
27017851,5666,32767,-214,136,-89,7,-3.084791,2.973580,1.597338
27033477,5588,32767,-154,142,-101,7,-3.075482,2.973424,1.598646
27049102,5738,32767,-296,119,-118,12,-3.058402,2.973288,1.601229
27064728,5702,32767,-240,118,-112,17,-3.045542,2.972899,1.603490
27080355,5662,32767,66,122,-133,25,-3.039526,2.972732,1.604585
27095981,5520,32767,30,104,-161,19,-3.030364,2.972273,1.606571
27111607,5584,32767,160,86,-176,7,-3.028829,2.972150,1.607280
27127234,5582,32767,24,148,-200,22,-3.026080,2.972046,1.608710
27142860,5658,32767,156,170,-224,42,-3.020442,2.971985,1.610053
27158486,5576,32767,90,216,-257,74,-3.008034,2.971047,1.613366
27174112,5592,32767,6,224,-292,78,-2.999322,2.970439,1.615552
27189738,5648,32767,-70,215,-329,97,-2.985945,2.969127,1.619767
27205364,5730,32767,-416,281,-345,129,-2.969844,2.967072,1.624978
27220990,5814,32767,-150,210,-405,121,-2.962094,2.966004,1.627738
27236616,5832,32767,-444,258,-414,165,-2.953972,2.963639,1.632662
27252242,5882,32767,-470,227,-451,150,-2.950003,2.962235,1.635293
27267868,5966,32767,-234,182,-488,137,-2.946959,2.959815,1.639997
27283495,6114,32767,-582,192,-505,162,-2.948079,2.958713,1.642016
27299121,6280,32767,-718,203,-512,159,-2.950312,2.956086,1.646279
27314746,6392,32767,-790,272,-521,166,-2.947874,2.953434,1.651646
27330373,6336,32767,-632,293,-542,182,-2.945095,2.951961,1.654843
27346000,6324,32767,-914,321,-564,189,-2.939331,2.949110,1.661533
27361627,6510,32767,-948,272,-583,179,-2.936769,2.947666,1.664981
27377253,6652,32767,-1196,262,-590,194,-2.935702,2.945013,1.671203
27392882,6684,32767,-1098,169,-602,172,-2.936030,2.943512,1.674169
27408508,6704,32767,-1270,144,-619,174,-2.944125,2.941179,1.678107
27424134,6720,32767,-1248,140,-620,181,-2.948754,2.940009,1.679921
27439760,6816,32767,-1056,133,-643,177,-2.958501,2.937665,1.683348
27455387,6916,32767,-1322,167,-637,181,-2.963489,2.936578,1.685027
27471013,7052,32767,-1356,172,-653,165,-2.971393,2.934299,1.688842
27486639,7218,32767,-1470,188,-655,165,-2.977953,2.932375,1.693069
27502265,7250,32767,-1440,224,-646,167,-2.980358,2.931313,1.695416
27517890,7170,32767,-1364,246,-645,163,-2.983538,2.929409,1.700609
27533516,7164,32767,-1686,288,-652,157,-2.984524,2.928522,1.703394
27549143,7214,32767,-1906,341,-650,147,-2.983651,2.927034,1.710017
27564770,7236,32767,-1976,404,-624,150,-2.978618,2.925758,1.718243
27580396,7274,32767,-2128,456,-625,169,-2.974448,2.925056,1.723004
27596023,7528,32767,-2268,481,-661,222,-2.966412,2.923173,1.733199
27611650,7940,32767,-2324,477,-674,221,-2.963283,2.921901,1.738337
27627277,8214,32767,-2444,414,-670,185,-2.958277,2.919341,1.748368
27642904,8228,32767,-2640,334,-658,172,-2.957262,2.918417,1.752669
27658530,7874,32767,-3010,300,-687,162,-2.958669,2.916676,1.759611
27674156,7286,32767,-3728,338,-739,136,-2.959627,2.916140,1.766840
27689782,6638,32767,-4826,255,-917,156,-2.960085,2.916616,1.770684
27705409,7662,32767,-3954,681,-946,92,-2.960798,2.917365,1.775057
27721035,8920,32767,-1340,1242,-690,-102,-2.941254,2.920352,1.793788
27736662,9038,32767,-2706,864,-666,78,-2.911417,2.923703,1.815953
27752288,9066,32767,-3690,561,-659,212,-2.905929,2.923384,1.823171
27767914,8812,32767,-2940,506,-578,104,-2.903785,2.921384,1.833545
27783540,8196,32767,-2760,233,-565,29,-2.903295,2.921306,1.837267
27799167,8082,32767,-3252,-113,-639,70,-2.911963,2.922745,1.837838
27814794,8088,32767,-3382,-256,-696,88,-2.922021,2.923410,1.835077
27830421,7994,32767,-3400,-255,-720,61,-2.944991,2.924664,1.827911
27846048,7906,32767,-3112,-264,-755,46,-2.955983,2.925663,1.824293
27861674,7676,32767,-2872,-136,-821,92,-2.976904,2.927805,1.817632
27877301,7694,32767,-3048,-26,-906,94,-2.993858,2.929553,1.814074
27892928,7916,32767,-3092,112,-957,92,-3.000258,2.930731,1.813679
27908554,8150,32767,-2814,232,-994,94,-3.009060,2.932849,1.816093
27924179,8208,32767,-2702,271,-1034,105,-3.015121,2.934886,1.820827
27939805,8188,32767,-2932,244,-1072,113,-3.018025,2.935879,1.823421
27955431,8208,32767,-3354,211,-1112,118,-3.021554,2.936962,1.825582
27971057,8256,32767,-3392,213,-1152,120,-3.028870,2.939133,1.829968
27986684,8412,32767,-3464,174,-1191,105,-3.036071,2.941733,1.834346
28002311,8542,32767,-3848,121,-1190,112,-3.040144,2.943127,1.836037
28017937,8570,32767,-4014,109,-1195,137,-3.049158,2.945510,1.838730
28033564,8476,32767,-4136,85,-1201,141,-3.058648,2.947461,1.841123
28049190,8494,32767,-4360,70,-1196,130,-3.063278,2.948548,1.842189
28064816,8432,32767,-4414,95,-1185,117,-3.067787,2.949674,1.843128
28080443,8612,32767,-4546,118,-1180,110,-3.075577,2.952209,1.845605
28096070,8892,32767,-4708,101,-1174,90,-3.079197,2.953400,1.847024
28111695,9214,32767,-4744,38,-1123,51,-3.086263,2.956011,1.849449
28127322,9174,32767,-5004,-19,-1055,31,-3.093842,2.958693,1.850021
28142949,8906,32767,-5094,-17,-989,13,-3.097671,2.960095,1.849648
28158576,8804,32767,-5178,47,-967,-11,-3.104184,2.962880,1.849280
28174202,8796,32767,-5004,135,-958,-23,-3.106517,2.964435,1.849730
28189829,8910,32767,-4946,213,-943,-12,-3.109513,2.967789,1.852325
28205456,9026,32767,-5034,245,-910,6,-3.110724,2.969201,1.854259
28221082,8954,32767,-5070,246,-883,12,-3.113384,2.971339,1.858319
28236709,8810,32767,-4982,237,-854,7,-3.114711,2.972296,1.860314
28252335,8762,32767,-5046,244,-842,0,-3.117325,2.974377,1.863902
28267962,8964,32767,-5132,228,-841,11,-3.119859,2.976467,1.867360
28283588,9180,32767,-5296,196,-832,33,-3.121524,2.977304,1.868825
28299214,9298,32767,-5186,114,-801,29,-3.125678,2.978408,1.871158
28314841,9212,32767,-4994,12,-772,16,-3.128366,2.978845,1.871247
28330467,8964,32767,-5066,-87,-741,12,-3.134811,2.979721,1.869011
28346094,8760,32767,-5068,-143,-715,14,-3.138399,2.980166,1.866813
28361720,8712,32767,-5084,-120,-705,14,3.137514,2.981050,1.861854
28377347,8948,32767,-5090,-52,-696,4,3.131026,2.981829,1.857889
28392972,8992,32767,-4988,-11,-687,7,3.128071,2.982164,1.856297
28408597,8878,32767,-4898,4,-660,30,3.122584,2.982521,1.854217
28424224,8692,32767,-4928,15,-632,36,3.119778,2.982442,1.853264
28439850,8490,32767,-4878,51,-645,37,3.114370,2.982155,1.851660
28455476,8554,32767,-4908,67,-664,37,3.112000,2.982227,1.851203
28471101,8752,32767,-4820,82,-674,36,3.107466,2.982390,1.850652
28486727,8948,32767,-4716,84,-673,37,3.105141,2.982291,1.850621
28502353,8876,32767,-4700,23,-677,47,3.100323,2.982106,1.850119
28517980,8802,32767,-4676,-27,-677,49,3.094815,2.981734,1.848382
28533606,8596,32767,-4636,-51,-696,38,3.091911,2.981533,1.847102
28549233,8586,32767,-4570,-77,-715,28,3.086324,2.981617,1.843975
28564859,8638,32767,-4698,-84,-731,31,3.083646,2.981896,1.842125
28580485,8596,32767,-4612,-38,-753,49,3.078242,2.982209,1.838939
28596112,8622,32767,-4602,-2,-781,54,3.075541,2.982221,1.837775
28611738,8636,32767,-4706,23,-804,58,3.070541,2.982408,1.836459
28627364,8844,32767,-4794,42,-826,49,3.068146,2.982512,1.836151
28642990,8980,32767,-4778,52,-831,53,3.063504,2.982773,1.835969
28658617,9004,32767,-4674,30,-830,51,3.058741,2.982845,1.835971
28674243,8812,32767,-4878,-1,-831,37,3.056285,2.982874,1.835619
28689869,8722,32767,-4884,-24,-840,28,3.051854,2.983505,1.834547
28705494,8598,32767,-4888,-29,-861,19,3.049715,2.983919,1.833825
28721121,8578,32767,-4888,-17,-877,15,3.045657,2.985074,1.832430
28736748,8580,32767,-4892,0,-890,13,3.043710,2.985666,1.831915
28752375,8662,32767,-5062,22,-896,12,3.040089,2.987116,1.831200
28768002,8776,32767,-5124,55,-900,5,3.036602,2.988462,1.831437
28783627,8826,32767,-5402,51,-898,0,3.034925,2.989163,1.831840
28799253,8864,32767,-5486,39,-887,2,3.031593,2.990542,1.832425
28814883,8768,32767,-5652,44,-866,6,3.029931,2.991229,1.832719
28830508,8706,32767,-5664,57,-849,4,3.026437,2.992255,1.833421
28846135,8846,32767,-5688,78,-840,7,3.024757,2.992789,1.833854
28861760,9106,32767,-5858,68,-805,4,3.021369,2.993718,1.835221
28877386,9188,32767,-5662,43,-740,4,3.019501,2.993917,1.835607
28893013,9090,32767,-5694,24,-679,7,3.015634,2.993913,1.835750
28908638,9070,32767,-5728,10,-644,8,3.011635,2.993503,1.835308
28924263,8976,32767,-5636,14,-616,20,3.009763,2.993338,1.834978
28939889,8924,32767,-5636,9,-584,31,3.005573,2.992416,1.834202
28955515,8850,32767,-5644,14,-561,39,3.003453,2.991800,1.833672
28971142,8768,32767,-5518,17,-547,43,2.999163,2.990448,1.832852
28986768,8656,32767,-5458,13,-541,47,2.997069,2.989802,1.832320
29002395,8606,32767,-5242,-5,-533,47,2.992832,2.988382,1.831249
29018021,8626,32767,-5182,-25,-557,43,2.988673,2.987035,1.829508
29033647,8762,32767,-5184,-42,-558,29,2.986829,2.986634,1.828381
29049274,8786,32767,-5090,-35,-554,13,2.983067,2.985727,1.826164
29064901,8746,32767,-5092,-21,-562,7,2.981337,2.985378,1.825133
29080526,8720,32767,-4946,0,-587,6,2.978121,2.984950,1.823455
29096153,8726,32767,-4954,20,-612,4,2.976527,2.984808,1.822891
29111780,8706,32767,-4938,13,-618,-13,2.973457,2.984746,1.821993
29127407,8576,32767,-4914,16,-624,-17,2.972169,2.984978,1.821538
29143034,8556,32767,-4996,30,-654,-16,2.969485,2.985368,1.820809
29158660,8734,32767,-5138,56,-690,-23,2.966933,2.986133,1.820592
29174286,8640,32767,-5188,82,-687,-21,2.965528,2.986471,1.820891
29189912,8604,32767,-5294,75,-690,-11,2.962889,2.987315,1.821826
29205538,8690,32767,-5464,68,-698,-2,2.961366,2.987587,1.822325
29221164,8790,32767,-5548,44,-689,-15,2.958224,2.988032,1.823047
29236789,8832,32767,-5546,50,-670,-22,2.956792,2.988360,1.823183
29252415,8782,32767,-5646,81,-649,-16,2.953884,2.988886,1.823857
29268042,8576,32767,-5840,138,-629,1,2.950530,2.989003,1.825580
29283668,8376,32767,-6208,246,-614,14,2.948741,2.989014,1.827181
29299294,8128,32767,-6486,216,-586,20,2.944792,2.988914,1.831889
29314921,8166,32767,-6234,222,-566,28,2.942887,2.988871,1.833987
29330547,8464,32767,-6346,223,-561,-3,2.939008,2.988675,1.838127
29346174,9004,32767,-6436,227,-507,-39,2.937371,2.988871,1.840106
29361801,9332,32767,-6328,286,-469,-34,2.934100,2.988940,1.844231
29377426,9402,32767,-6300,257,-443,-12,2.932117,2.988646,1.846707
29393053,9256,32767,-6244,119,-391,-12,2.927906,2.987413,1.850290
29408679,9084,32767,-6194,-52,-325,-40,2.924943,2.986213,1.849450
