elbow_0
Module: 78:21:84:DF:61:54 (01)
t(us),ax,ay,az,gx,gy,gz,y,p,r
1,4128,22028,12162,8,-62,-4,0.000108,0.001830,0.015504
15627,4168,22044,12136,28,-60,-5,0.000144,0.009511,0.046761
31254,4126,22090,12176,31,-59,-3,0.000024,0.011948,0.057268
46879,4148,22232,12068,20,-60,-5,-0.000180,0.017059,0.078162
62505,4108,22188,12196,17,-56,-6,-0.000253,0.019486,0.088427
78130,4130,22180,12292,17,-55,-4,-0.000473,0.024333,0.108735
93757,4138,22202,12294,2,-56,-3,-0.000741,0.026759,0.118770
109384,4126,22152,12234,-3,-61,-1,-0.001089,0.031467,0.138369
125011,4154,22082,12106,6,-59,0,-0.001644,0.036172,0.157494
140637,4154,22070,12206,13,-56,-2,-0.001890,0.038454,0.167070
156264,4126,22040,12196,19,-56,2,-0.002446,0.043004,0.186105
171890,4132,22114,12166,17,-52,-3,-0.002877,0.045287,0.195574
187517,4090,22088,12202,16,-51,-1,-0.003530,0.049572,0.214278
203144,4110,22102,12184,25,-56,-2,-0.003871,0.051588,0.223524
218769,4158,22158,12254,35,-60,0,-0.004641,0.055851,0.242039
234396,4194,22182,12170,33,-57,-2,-0.005055,0.057972,0.251293
250023,4108,22198,12214,26,-51,-1,-0.005799,0.062071,0.269492
265650,4094,22102,12206,23,-54,2,-0.006690,0.065924,0.287212
281277,4114,22140,12212,25,-57,-1,-0.007169,0.067904,0.296024
296904,4212,22124,12214,33,-58,-3,-0.008028,0.071710,0.313296
312531,4240,22116,12232,42,-60,-5,-0.008433,0.073658,0.321898
328157,4180,22226,12148,41,-55,-5,-0.009394,0.077431,0.339104
343782,4164,22230,12096,30,-55,-7,-0.009947,0.079264,0.347608
359408,4106,22306,12206,29,-55,-4,-0.010839,0.082869,0.364131
375035,4130,22284,12134,9,-51,-7,-0.011732,0.086210,0.380300
390662,4002,22066,12198,-14,-52,-7,-0.012161,0.087760,0.387976
406288,4062,21998,12234,17,-61,-5,-0.012941,0.090937,0.402961
421913,4126,22138,12206,35,-66,-3,-0.013432,0.092586,0.410649
437539,4170,22236,12172,26,-62,-2,-0.014459,0.095865,0.426056
453164,4146,22210,12166,9,-56,0,-0.014984,0.097502,0.433537
468789,4086,22144,12182,3,-56,-2,-0.016024,0.100638,0.448120
484416,4084,22054,12218,8,-59,-4,-0.016515,0.102025,0.455246
500043,4162,22060,12148,22,-62,-5,-0.017450,0.104988,0.469250
515669,4144,22200,12138,32,-61,-4,-0.018565,0.107959,0.483435
531295,4186,22256,12154,21,-59,-3,-0.018986,0.109284,0.490459
546920,4200,22234,12212,8,-57,-2,-0.020113,0.112109,0.504181
562547,4174,22146,12196,-8,-56,-3,-0.020578,0.113541,0.510861
578172,4228,22040,12174,0,-56,-5,-0.021526,0.116088,0.523497
593799,4168,21996,12248,27,-58,-5,-0.022089,0.117426,0.529817
609424,4154,22096,12176,47,-57,-4,-0.023110,0.119930,0.542737
625049,4146,22198,12160,43,-55,-10,-0.023601,0.121211,0.549340
640675,4154,22292,12212,21,-48,-7,-0.024610,0.123438,0.562263
656300,4104,22324,12254,10,-50,-10,-0.025460,0.125516,0.574487
671927,4130,22160,12192,-2,-57,-9,-0.025887,0.126558,0.580385
687554,4142,21988,12096,5,-60,-6,-0.026722,0.128621,0.591727
703180,4124,21922,12176,32,-55,-6,-0.027186,0.129765,0.597366
718806,4120,22052,12158,35,-52,-12,-0.028173,0.131712,0.609014
734432,4100,22216,12220,35,-55,-13,-0.028476,0.132574,0.614690
750059,4090,22314,12236,39,-55,-9,-0.029335,0.134342,0.626116
765684,4116,22294,12176,15,-58,-9,-0.030127,0.136174,0.637327
781311,4094,22128,12114,6,-58,-7,-0.030544,0.137061,0.642501
796937,4134,22096,12198,15,-56,-7,-0.031388,0.138810,0.652814
812564,4076,22096,12162,13,-55,-10,-0.031699,0.139647,0.657884
828189,4080,22164,12200,24,-60,-8,-0.032531,0.141268,0.668008
843815,4134,22258,12182,22,-60,-7,-0.032860,0.142087,0.673082
859441,4082,22266,12222,-4,-58,-10,-0.033586,0.143641,0.682949
875067,4050,22098,12190,-14,-60,-8,-0.033968,0.144391,0.687509
890693,4132,21996,12148,1,-61,-5,-0.034533,0.145916,0.696382
906318,4120,22016,12202,24,-59,-10,-0.035218,0.147354,0.705446
921945,4172,22028,12204,25,-57,-12,-0.035624,0.148080,0.710013
937571,4168,22192,12174,40,-56,-5,-0.036334,0.149474,0.719157
953198,4106,22374,12170,44,-53,-5,-0.036764,0.150191,0.723771
968825,4102,22382,12206,13,-60,-10,-0.037548,0.151370,0.733057
984452,4128,22190,12278,-26,-66,-7,-0.037800,0.151934,0.737284
1000078,4224,21952,12084,-41,-61,-10,-0.038429,0.153364,0.744703
1015704,4234,21734,12120,-3,-53,-10,-0.038501,0.153901,0.748118
1031330,4108,22050,12180,69,-54,-10,-0.039256,0.155221,0.755916
1046957,4134,22348,12184,53,-58,-11,-0.039924,0.156209,0.764804
1062583,4118,22344,12186,16,-58,-11,-0.040276,0.156670,0.769025
1078209,4208,22204,12192,-1,-53,-10,-0.040739,0.157640,0.776714
1093834,4146,22090,12218,2,-53,-10,-0.040972,0.158186,0.780289
1109461,4122,22074,12114,9,-53,-8,-0.041482,0.159097,0.787465
1125087,4084,22060,12238,22,-54,-6,-0.041784,0.159577,0.790913
1140714,4094,22168,12186,12,-62,-10,-0.042311,0.160467,0.798094
1156341,4134,22060,12170,10,-57,-9,-0.042693,0.161326,0.804782
1171968,4144,22052,12130,18,-61,-7,-0.042896,0.161741,0.808240
1187595,4108,22078,12110,15,-58,-9,-0.043408,0.162628,0.814926
1203221,4186,21990,12146,13,-56,-7,-0.043604,0.163052,0.818161
1218847,4122,21970,12164,28,-56,-7,-0.044106,0.163933,0.824576
1234474,4070,22134,12200,49,-59,-10,-0.044382,0.164276,0.827908
1250100,4160,22314,12196,58,-63,-7,-0.044905,0.164998,0.834866
1265726,4166,22412,12080,23,-59,-7,-0.045259,0.165437,0.838374
1281352,4108,22256,12150,-18,-54,-10,-0.045676,0.166080,0.844550
1296978,4132,21924,12282,-21,-58,-8,-0.045879,0.166739,0.849573
1312604,4118,21848,12208,5,-59,-10,-0.045975,0.167053,0.852089
1328229,4138,21978,12244,35,-60,-7,-0.046227,0.167671,0.857502
1343855,4100,22238,12258,38,-63,-7,-0.046542,0.168118,0.860464
1359481,4188,22182,12122,9,-62,-9,-0.046844,0.168692,0.866266
1375107,4182,22002,12130,-3,-57,-6,-0.046964,0.168997,0.868837
1390733,4152,21860,12164,24,-52,-4,-0.047429,0.169715,0.873857
1406358,4122,22004,12190,55,-54,-6,-0.047782,0.170222,0.879371
1421985,4116,22302,12220,64,-61,-4,-0.048084,0.170533,0.882488
1437612,4100,22506,12182,32,-55,-6,-0.048604,0.171066,0.888326
1453238,4054,22384,12190,-8,-59,-6,-0.048807,0.171284,0.890993
1468864,4150,22124,12134,-34,-62,-6,-0.048844,0.171745,0.895364
1484498,4144,21944,12160,-14,-62,-5,-0.048863,0.171962,0.897266
1500124,4222,21882,12070,7,-61,-8,-0.049022,0.172598,0.901204
1515751,4154,21988,12258,30,-57,-8,-0.049242,0.172955,0.903389
1531378,4120,22176,12260,47,-58,-6,-0.049505,0.173360,0.908125
1547005,4152,22238,12166,6,-60,-7,-0.049707,0.173583,0.910574
1562631,4218,22036,12130,-6,-56,-11,-0.049820,0.173965,0.914821
1578256,4150,22012,12132,16,-55,-7,-0.049886,0.174367,0.918630
1593883,4122,22026,12124,34,-53,-9,-0.050063,0.174601,0.920804
1609509,4102,22206,12182,43,-54,-8,-0.050256,0.174899,0.925146
1625135,4144,22238,12220,33,-53,-8,-0.050294,0.174957,0.927479
1640761,4140,22216,12244,18,-52,-9,-0.050480,0.175239,0.931766
1656387,4092,22224,12234,11,-59,-4,-0.050573,0.175472,0.935493
1672012,4158,22162,12164,-2,-60,-8,-0.050594,0.175665,0.937233
1687639,4190,21978,12098,-7,-57,-8,-0.050583,0.175970,0.940538
1703266,4182,21868,12126,7,-55,-11,-0.050599,0.176172,0.942169
1718893,4130,21960,12190,29,-53,-9,-0.050579,0.176464,0.945419
1734519,4100,22196,12264,52,-52,-5,-0.050685,0.176588,0.947307
1750145,4020,22266,12174,37,-55,-7,-0.050949,0.176817,0.951416
1765771,4122,22174,12172,0,-58,-9,-0.050948,0.176881,0.953310
1781396,4162,22028,12152,1,-59,-7,-0.050755,0.177019,0.956334
1797022,4180,21998,12138,34,-57,-5,-0.050701,0.177110,0.957786
1812649,4180,22230,12208,52,-49,-5,-0.050968,0.177474,0.961361
1828274,4066,22342,12368,39,-51,-1,-0.051200,0.177697,0.965139
1843901,4118,22346,12244,4,-59,-6,-0.051251,0.177714,0.966905
1859528,4134,22206,12186,-24,-61,-9,-0.051127,0.177922,0.969485
1875155,4194,21984,12150,-25,-61,-4,-0.051037,0.178040,0.970554
1890781,4240,21922,12132,-15,-55,-6,-0.050841,0.178304,0.972475
1906408,4172,21894,12214,7,-49,-10,-0.050800,0.178584,0.974775
1922034,4112,21940,12246,24,-49,-7,-0.050815,0.178631,0.976159
1937659,4086,22002,12158,28,-52,-15,-0.050705,0.178614,0.977489
1953285,4092,22060,12180,41,-54,-9,-0.050630,0.178612,0.980419
1968912,4120,21996,12040,54,-50,-8,-0.050641,0.178702,0.983531
1984538,4080,22086,12202,71,-53,-7,-0.050703,0.178704,0.985298
2000164,4046,22380,12134,72,-50,-5,-0.050802,0.178743,0.989019
2015791,3992,22486,12210,43,-48,-5,-0.050875,0.178726,0.990895
2031417,4046,22408,12274,-2,-57,-9,-0.050760,0.178620,0.993761
2047044,4116,22254,12186,-37,-61,-10,-0.050375,0.178697,0.995448
2062671,4078,21958,12136,-26,-60,-6,-0.050076,0.178690,0.996017
2078297,4074,21916,12146,-13,-60,-8,-0.049844,0.178958,0.997499
2093924,4024,21942,12090,0,-62,-7,-0.049564,0.178919,0.998283
2109550,4076,21826,12118,8,-56,-8,-0.049385,0.179162,1.000100
2125176,4104,21800,12092,29,-58,-12,-0.049252,0.179155,1.001155
2140802,4160,21912,12202,73,-62,-12,-0.049096,0.179220,1.003615
2156428,4236,22334,12294,101,-65,-7,-0.049220,0.179325,1.005291
2172054,4230,22676,12256,82,-62,-4,-0.049584,0.179581,1.009148
2187680,4198,22782,12158,19,-62,-10,-0.049710,0.179683,1.010824
2203306,4224,22416,12134,-72,-60,-9,-0.049384,0.179730,1.012739
2218932,4158,21972,12190,-99,-54,-11,-0.048709,0.179891,1.012842
2234557,4014,21654,12236,-78,-55,-10,-0.048243,0.179831,1.012619
2250182,3954,21518,12222,-17,-66,-8,-0.047412,0.179808,1.012416
2265809,4080,21758,12106,28,-68,-14,-0.047273,0.179951,1.012937
2281435,4088,21926,12056,43,-65,-12,-0.046976,0.179979,1.015020
2297061,4162,21974,12138,45,-61,-9,-0.046872,0.180138,1.017330
2312687,4276,22004,12192,52,-59,-12,-0.046885,0.180164,1.018548
2328314,4202,22116,12172,66,-54,-6,-0.046861,0.180260,1.021006
2343940,4106,22316,12218,81,-57,0,-0.046901,0.180271,1.022392
2359567,4050,22554,12222,56,-62,-3,-0.047174,0.180425,1.025392
2375193,4040,22550,12194,-2,-67,-1,-0.047130,0.180507,1.026524
2390818,4132,22294,12176,-63,-69,-6,-0.046769,0.180557,1.027703
2406443,4128,21910,12206,-78,-69,-8,-0.046331,0.180646,1.027577
2422070,4174,21700,12198,-53,-64,-7,-0.045588,0.180853,1.027134
2437696,4138,21682,12146,-13,-64,-7,-0.045221,0.180865,1.027201
2453322,4124,21836,12254,45,-64,-8,-0.044934,0.181167,1.028033
2468947,4248,22006,12146,55,-68,-7,-0.044860,0.181288,1.030050
2484574,4338,21998,12198,53,-62,-5,-0.044820,0.181364,1.031183
2500200,4268,22046,12152,62,-53,-4,-0.045056,0.181692,1.033378
2515826,4196,22194,12170,75,-47,0,-0.045128,0.181827,1.034508
2531452,4064,22328,12162,72,-47,1,-0.045421,0.181960,1.037109
2547079,4008,22430,12242,38,-52,-3,-0.045320,0.181786,1.039346
2562705,4104,22380,12298,-1,-62,-2,-0.045158,0.181797,1.040020
2578331,4214,22024,12162,-27,-66,0,-0.044958,0.181837,1.040420
2593958,4198,21850,12148,-10,-58,-5,-0.044554,0.182067,1.040796
2609584,4144,21872,12218,20,-53,-8,-0.044237,0.182222,1.041425
2625210,4170,21980,12208,44,-55,-5,-0.044077,0.182231,1.042100
2640836,4184,21966,12108,49,-51,-8,-0.043954,0.182233,1.043700
2656462,4104,21948,12180,57,-55,-4,-0.043927,0.182267,1.044583
2672088,4126,22068,12230,68,-53,-5,-0.043861,0.182237,1.046519
2687713,4138,22154,12286,74,-53,-5,-0.043973,0.182317,1.047568
2703340,4156,22312,12230,71,-61,-2,-0.043995,0.182353,1.049734
2718966,4182,22598,12204,40,-57,-5,-0.043898,0.182343,1.051796
2734592,4100,22570,12218,-1,-57,-3,-0.043851,0.182407,1.052468
2750219,4086,22304,12248,-59,-60,-7,-0.043295,0.182301,1.052960
2765845,4066,21866,12248,-80,-65,-9,-0.042866,0.182351,1.052584
2781472,4162,21684,12038,-43,-70,-7,-0.041816,0.182342,1.051564
2797097,4166,21738,12110,16,-66,-6,-0.041280,0.182515,1.051776
2812723,4232,22050,12116,48,-60,-5,-0.041234,0.182578,1.052448
2828349,4230,22184,12258,34,-53,-7,-0.041141,0.182682,1.053141
2843975,4156,22088,12200,6,-57,-8,-0.040976,0.182720,1.054361
2859601,4180,21960,12190,29,-59,-4,-0.040508,0.182679,1.055082
2875228,4262,22094,12186,62,-53,-5,-0.040435,0.182755,1.055586
2890855,4126,22270,12256,59,-48,-6,-0.040417,0.182826,1.057373
2906482,3992,22450,12270,22,-53,-6,-0.040324,0.182764,1.058133
2922107,4036,22296,12180,-10,-62,-5,-0.039762,0.182497,1.058985
2937733,4130,22154,12158,-26,-66,-6,-0.039527,0.182561,1.059112
2953359,4184,21952,12122,-25,-62,-4,-0.038718,0.182493,1.059016
2968984,4162,21810,12160,-11,-57,-7,-0.038454,0.182574,1.058975
2984610,4154,21830,12186,23,-55,-9,-0.038031,0.182660,1.059209
3000237,4144,21922,12192,36,-53,-15,-0.037566,0.182614,1.059930
3015863,4170,22008,12144,58,-53,-10,-0.037449,0.182585,1.060478
3031489,4130,22190,12232,81,-58,-3,-0.037250,0.182478,1.062186
3047115,4100,22362,12156,67,-58,-4,-0.037300,0.182478,1.064057
3062742,4162,22362,12202,36,-57,-5,-0.037179,0.182453,1.064900
3078369,4188,22184,12200,11,-50,-5,-0.037111,0.182524,1.065404
3093996,4106,22178,12194,10,-53,-8,-0.036669,0.182468,1.065894
3109623,4108,22182,12136,27,-57,-3,-0.036195,0.182434,1.066509
3125250,4108,22246,12188,16,-58,-4,-0.036064,0.182400,1.066994
3140876,4046,22170,12190,-15,-59,-6,-0.035577,0.182383,1.067504
3156503,4102,21990,12186,-24,-63,-7,-0.035251,0.182358,1.067444
3172129,4152,21854,12134,2,-63,-8,-0.034399,0.182321,1.067074
3187755,4282,21966,12134,39,-60,-9,-0.034179,0.182363,1.067307
3203382,4188,22112,12208,61,-54,-8,-0.033951,0.182439,1.068381
3219009,4118,22266,12248,57,-55,-5,-0.033914,0.182489,1.069054
3234636,4126,22308,12192,25,-60,-5,-0.033777,0.182485,1.070380
3250262,4154,22210,12210,9,-58,-5,-0.033321,0.182447,1.071059
3265889,4108,22220,12186,-1,-54,-7,-0.033196,0.182549,1.071226
3281515,4046,22148,12216,1,-58,-7,-0.032602,0.182461,1.071444
3297142,4092,22168,12158,-1,-64,-10,-0.032181,0.182353,1.071490
3312768,4158,22058,12106,-15,-62,-9,-0.031511,0.182324,1.071560
3328394,4198,21966,12208,-21,-58,-8,-0.031169,0.182317,1.071395
3344020,4158,21914,12140,-2,-57,-7,-0.030454,0.182324,1.071192
3359646,4192,22024,12240,20,-50,-8,-0.030237,0.182361,1.071131
3375272,4140,22092,12272,32,-52,-6,-0.029781,0.182297,1.071556
3390898,4132,22058,12202,32,-59,-3,-0.029419,0.182317,1.072169
3406523,4138,22080,12122,35,-64,-6,-0.029277,0.182298,1.072549
3422149,4182,22158,12162,43,-59,-6,-0.028914,0.182319,1.073456
3437774,4222,22212,12302,37,-57,-10,-0.028724,0.182363,1.074405
3453399,4118,22332,12302,22,-54,-10,-0.028472,0.182280,1.074787
3469026,4138,22244,12262,3,-59,-5,-0.028190,0.182215,1.075000
3484652,4124,22110,12120,-16,-59,-1,-0.027599,0.182264,1.074900
3500278,4162,21932,12170,5,-58,1,-0.027117,0.182376,1.074799
3515904,4242,21914,12196,21,-59,-1,-0.026929,0.182394,1.074906
3531530,4302,21902,12192,30,-54,-6,-0.026697,0.182614,1.075266
3547155,4270,22038,12164,66,-48,-1,-0.026603,0.182715,1.075562
3562782,4162,22262,12154,83,-40,-6,-0.026713,0.182802,1.076991
3578409,3954,22340,12230,41,-44,-7,-0.026711,0.182663,1.077896
3594035,3956,22250,12210,14,-48,-10,-0.026176,0.182348,1.078552
3609661,4092,22062,12178,12,-57,-10,-0.025815,0.182199,1.078640
3625287,4200,22112,12220,26,-53,-12,-0.025048,0.181919,1.078877
3640913,4080,22258,12206,40,-56,-3,-0.024610,0.181849,1.079365
3656539,4114,22294,12096,14,-57,-7,-0.024470,0.181825,1.079746
3672165,4012,22128,12090,-11,-56,-7,-0.023860,0.181730,1.079898
3687791,4054,21886,12180,-6,-56,-4,-0.023123,0.181593,1.079652
3703418,4066,21924,12158,35,-61,-4,-0.022811,0.181545,1.079696
3719045,4180,22206,12220,64,-65,-3,-0.022718,0.181643,1.079992
3734671,4228,22406,12204,45,-61,-4,-0.022584,0.181778,1.081192
3750297,4218,22262,12234,-6,-57,1,-0.022444,0.181753,1.081572
3765923,4196,22032,12192,-14,-55,1,-0.022040,0.181965,1.081556
3781550,4240,21862,12194,2,-57,-1,-0.021445,0.182013,1.081163
3797175,4174,21960,12216,36,-51,-2,-0.021290,0.182151,1.081123
3812801,4108,22186,12208,51,-49,-3,-0.021154,0.182286,1.081735
3828427,4054,22242,12166,38,-52,-7,-0.021014,0.182260,1.082115
3844053,4086,22278,12090,21,-60,-4,-0.020530,0.182062,1.082686
3859680,4052,22198,12038,20,-59,0,-0.020313,0.182095,1.082919
3875306,4132,22216,12134,10,-57,-3,-0.019909,0.182143,1.083260
3890933,4116,22310,12342,13,-57,-1,-0.019281,0.182066,1.083308
3906560,4168,22318,12150,-27,-64,-7,-0.019076,0.182101,1.083311
3922185,4180,22170,12204,-54,-61,-11,-0.018066,0.182022,1.082478
3937811,4236,21996,12036,-15,-69,5,-0.017545,0.181993,1.081977
3953437,4176,21970,12088,-35,-52,-12,-0.016992,0.182328,1.081440
3969063,4060,21760,12266,-5,-58,-5,-0.016516,0.182261,1.080917
3984689,4088,21780,12334,32,-59,-3,-0.015835,0.182227,1.080693
4000316,4116,22006,12208,53,-65,-10,-0.015728,0.182323,1.080926
4015943,4164,22418,12166,68,-63,-4,-0.015343,0.182201,1.081980
4031570,4208,22392,12252,15,-54,-10,-0.015165,0.182222,1.083223
4047196,4124,22210,12190,-28,-50,-12,-0.014833,0.182194,1.083163
4062821,4046,21928,12218,-20,-55,-9,-0.013830,0.181956,1.082454
4078446,4078,21876,12202,15,-59,-7,-0.013466,0.181950,1.082225
4094072,4048,22006,12204,46,-57,-13,-0.012866,0.181851,1.082440
4109698,4056,22156,12166,41,-55,-17,-0.012617,0.181759,1.082820
4125324,4104,22160,12144,30,-60,-14,-0.011924,0.181430,1.083453
4140951,4184,22190,12252,29,-57,-13,-0.011425,0.181390,1.083898
4156578,4160,22198,12256,34,-58,-8,-0.011157,0.181318,1.084173
4172205,4232,22180,12152,25,-58,-7,-0.010770,0.181341,1.084618
4187831,4172,22098,12276,0,-58,-13,-0.010137,0.181262,1.084664
4203458,4146,22012,12190,13,-57,-10,-0.009785,0.181256,1.084500
4219083,4108,22094,12078,32,-58,-5,-0.009471,0.181206,1.084542
4234710,4158,22062,12126,22,-53,-12,-0.009097,0.181227,1.085051
4250336,4042,21984,12310,35,-55,-2,-0.008843,0.181138,1.085137
4265963,4172,22098,12078,40,-64,-8,-0.008579,0.181222,1.085646
4281588,4146,22214,12170,35,-53,-6,-0.008114,0.181156,1.086258
4297215,4070,22290,12220,52,-59,6,-0.008022,0.181248,1.086556
4312841,4094,22334,12156,-1,-56,-11,-0.007889,0.181372,1.087170
4328468,4108,22238,12246,-6,-64,0,-0.007380,0.181178,1.087086
4344094,4184,22164,12230,7,-61,3,-0.006790,0.181370,1.086737
4359721,4164,22170,12154,-16,-58,-5,-0.006567,0.181405,1.086676
4375348,4188,22020,12168,-17,-57,-1,-0.005891,0.181517,1.086202
4390974,4140,21976,12148,9,-56,2,-0.005504,0.181534,1.085869
4406601,4088,22030,12204,20,-57,-4,-0.005134,0.181706,1.085836
4422227,4152,22064,12138,29,-59,2,-0.004673,0.181792,1.085905
4437853,4182,22152,12162,29,-59,-1,-0.004568,0.181884,1.086139
4453479,4162,22102,12238,33,-58,-4,-0.004173,0.181924,1.086545
4469105,4214,22148,12246,36,-58,-1,-0.004067,0.182015,1.086779
4484731,4212,22192,12142,25,-53,-5,-0.003771,0.182118,1.087122
4500358,4202,22182,12224,26,-49,-4,-0.003601,0.182108,1.087333
4515984,4104,22194,12264,30,-53,0,-0.003154,0.182030,1.087526
4531610,4104,22164,12184,10,-57,-8,-3.141577,-0.002887,-0.000964
4547237,4184,22062,12188,8,-58,-5,-0.002325,0.181961,1.087680
4562864,4134,22032,12118,19,-54,-6,-0.001830,0.182070,1.087582
4578498,4136,22062,12190,22,-53,-8,-0.001573,0.181980,1.087667
4594124,4134,22144,12246,33,-55,-6,-0.001067,0.181940,1.087817
4609751,4116,22214,12168,21,-53,-7,-0.000785,0.181865,1.088027
4625377,4090,22110,12174,2,-56,-8,-0.000094,0.181682,1.088115
4641002,4160,22028,12176,19,-59,-5,0.000243,0.181654,1.088054
4656629,4162,22198,12116,34,-59,-8,0.000685,0.181715,1.088227
4672254,4212,22302,12152,19,-50,-11,0.001081,0.181751,1.088633
4687879,4126,22234,12236,1,-51,-10,0.001384,0.181699,1.088740
4703505,4104,22148,12170,-18,-56,-11,0.002223,0.181463,1.088403
4719131,4100,22010,12166,1,-60,-7,0.002727,0.181418,1.088069
4734757,4188,22014,12186,24,-62,-7,0.003424,0.181385,1.087843
4750383,4156,22104,12174,23,-61,-11,0.003663,0.181434,1.087973
4766010,4216,22156,12094,17,-57,-12,0.004228,0.181454,1.088106
4781637,4142,22174,12106,9,-53,-12,0.004544,0.181402,1.088148
4797264,4094,22078,12262,18,-52,-8,0.005252,0.181220,1.088170
4812889,4076,22086,12226,31,-61,-7,0.005849,0.181101,1.088192
4828514,4162,22252,12114,20,-65,-12,0.006088,0.181150,1.088323
4844140,4164,22214,12148,12,-59,-13,0.006697,0.181044,1.088535
4859766,4152,22138,12118,1,-55,-13,0.007148,0.180952,1.088472
4875392,4112,22070,12174,-7,-56,-12,0.007849,0.180919,1.088246
4891018,4102,21956,12206,1,-60,-10,0.008277,0.180814,1.088057
4906645,4144,21940,12198,18,-60,-12,0.009049,0.180843,1.087750
4922272,4146,22074,12250,27,-63,-8,0.009606,0.180840,1.087922
4937898,4116,22014,12168,25,-64,-9,0.009912,0.180787,1.088028
4953523,4178,22028,12086,26,-63,-11,0.010458,0.180782,1.088264
4969149,4194,22108,12190,49,-61,-9,0.010699,0.180830,1.088395
4984776,4246,22256,12210,61,-60,-11,0.010941,0.180889,1.089263
5000403,4122,22360,12262,39,-54,-10,0.011054,0.180825,1.089745
5016029,4128,22294,12288,9,-58,-8,0.011607,0.180668,1.090228
5031655,4086,22128,12170,-12,-65,-8,0.011971,0.180664,1.090063
5047282,4178,21978,12178,13,-68,-8,0.012782,0.180719,1.089588
5062909,4150,22108,12126,17,-60,-17,0.013388,0.180762,1.089554
5078535,4022,22258,12360,8,-49,-30,0.013842,0.180670,1.089490
5094161,3998,22274,12680,-13,-62,-18,0.015148,0.180043,1.089159
5109787,4000,22224,12644,-43,-86,-27,0.015863,0.179861,1.088695
5125414,4020,22502,12394,-58,-125,-33,0.017677,0.179651,1.087225
5141041,4042,22644,12198,-72,-139,-21,0.018657,0.179694,1.086542
5156668,4008,22536,12358,-137,-149,-14,0.020471,0.180117,1.085018
5172293,4050,22248,12370,-229,-175,-14,0.021629,0.180459,1.083506
5187919,4192,22004,12274,-261,-182,-20,0.024674,0.181282,1.079046
5203544,4226,21784,12506,-220,-185,0,0.027989,0.182325,1.073989
5219171,4360,21596,12324,-169,-189,7,0.029267,0.183079,1.071807
5234798,4388,21402,12246,-191,-196,-8,0.031261,0.184893,1.068236
5250425,4422,21082,12276,-171,-192,-11,0.032430,0.185706,1.066354
5266051,4374,20802,12228,-113,-200,-11,0.034650,0.187232,1.063198
5281677,4500,20880,12278,-48,-209,-14,0.035394,0.188156,1.062249
5297304,4540,21004,12302,15,-206,-24,0.036419,0.189929,1.061634
5312930,4668,21250,12378,85,-206,-29,0.037016,0.191344,1.062880
5328557,4534,21494,12452,121,-206,-25,0.036946,0.192213,1.063954
5344184,4538,21718,12504,124,-224,-31,0.036772,0.193611,1.066954
5359810,4710,22096,12466,101,-234,-30,0.036821,0.194262,1.068466
5375436,4634,22088,12756,33,-248,-22,0.036945,0.195897,1.070908
5391063,4566,22056,12624,-25,-277,-29,0.037424,0.196741,1.071369
5406689,4550,22092,12792,-54,-300,-32,0.039093,0.198541,1.071387
5422315,4616,21996,12844,-74,-338,-23,0.040264,0.199474,1.070985
5437942,4708,21772,12842,-113,-376,-19,0.042500,0.202022,1.069908
5453569,4838,21700,12884,-126,-420,-31,0.045049,0.205109,1.068267
5469196,4924,21608,12892,-150,-452,-47,0.046489,0.206847,1.067350
5484822,4984,21520,12816,-175,-482,-46,0.050140,0.210303,1.065130
5500448,5182,21370,12774,-182,-511,-48,0.052027,0.212221,1.063967
5516073,5292,21264,12874,-171,-542,-54,0.056083,0.216388,1.061542
5531700,5468,21150,12868,-158,-576,-57,0.058091,0.218664,1.060516
5547326,5602,21180,12772,-145,-602,-58,0.062097,0.223467,1.058919
5562951,5914,21064,12678,-134,-619,-57,0.063918,0.226158,1.058322
5578577,5918,21050,12744,-114,-627,-59,0.067679,0.231579,1.057596
5594203,5974,21092,12920,-105,-652,-58,0.071315,0.237134,1.057339
5609829,6076,21070,12968,-113,-686,-57,0.073010,0.240091,1.057422
5625454,6324,21222,12872,-126,-717,-59,0.076994,0.246225,1.057364
5641081,6570,21168,12822,-136,-738,-68,0.079121,0.249428,1.057396
5656707,6732,21058,12844,-153,-749,-70,0.083599,0.256071,1.057362
5672334,6798,20958,13020,-156,-777,-69,0.086085,0.259453,1.057230
5687960,6856,21040,13190,-175,-826,-72,0.091307,0.266591,1.057017
5703587,7218,21080,13192,-210,-881,-70,0.097616,0.274186,1.056320
5719213,7396,20962,13110,-214,-919,-73,0.100981,0.278278,1.055948
5734840,7626,20808,13060,-227,-957,-87,0.108278,0.286680,1.055393
5750467,7876,20486,13064,-219,-994,-86,0.112215,0.291126,1.055158
5766094,8044,20342,13152,-189,-1030,-86,0.120149,0.300417,1.055365
5781720,8274,20476,13052,-172,-1072,-85,0.124024,0.305315,1.055894
5797346,8586,20520,12902,-169,-1113,-78,0.131926,0.315524,1.057570
5812973,8994,20448,12732,-173,-1146,-80,0.140255,0.326459,1.059997
5828600,9360,20394,12652,-175,-1168,-86,0.144598,0.332028,1.061437
5844226,9688,20364,12614,-170,-1198,-81,0.153703,0.343531,1.064511
5859853,9960,20382,12700,-187,-1222,-85,0.158548,0.349334,1.066390
5875479,10234,20424,12468,-201,-1248,-82,0.169140,0.361400,1.069809
5891104,10574,20310,12260,-207,-1261,-74,0.174923,0.367492,1.071683
5906730,10952,20092,12136,-183,-1266,-73,0.186757,0.380076,1.075894
5922356,11358,20014,12126,-161,-1277,-74,0.192845,0.386434,1.078275
5937982,11690,20062,12026,-153,-1287,-71,0.205023,0.399329,1.083914
5953608,12018,20226,11930,-179,-1304,-66,0.218446,0.412319,1.089871
5969234,12338,20170,11666,-204,-1304,-56,0.225853,0.418892,1.092803
5984861,12616,19962,11494,-198,-1296,-59,0.242096,0.431997,1.098785
6000487,12868,19692,11392,-197,-1295,-72,0.250673,0.438545,1.101868
6016113,13384,19630,11240,-193,-1293,-76,0.269224,0.451329,1.108444
6031739,13912,19648,11026,-200,-1284,-79,0.279099,0.457780,1.111849
6047366,14236,19636,10944,-196,-1266,-80,0.300519,0.470417,1.118849
6062992,14452,19592,10810,-186,-1245,-80,0.311665,0.476698,1.122539
6078619,14608,19290,10660,-149,-1228,-81,0.335289,0.488854,1.130084
6094244,14888,19228,10580,-115,-1221,-87,0.359895,0.500581,1.138623
6109870,15384,19286,10356,-83,-1213,-85,0.372329,0.506423,1.143446
6125498,15808,19390,10070,-67,-1198,-80,0.398253,0.517914,1.153627
6141125,16002,19452,10006,-62,-1168,-76,0.411666,0.523555,1.158920
6156752,16034,19370,9930,-47,-1147,-73,0.439498,0.534644,1.169885
6172378,16222,19354,9942,-55,-1145,-83,0.470453,0.545050,1.180871
6188005,16456,19302,9892,-49,-1152,-88,0.487597,0.550018,1.186295
6203631,16846,19290,9666,-52,-1155,-101,0.505961,0.555051,1.191894
6219257,17238,19238,9306,-52,-1141,-114,0.546092,0.564630,1.203356
6234883,17364,19260,9116,-11,-1123,-116,0.590166,0.573778,1.215311
6250510,17616,19344,8976,23,-1104,-105,0.613214,0.578151,1.221742
6266137,17748,19334,8964,63,-1094,-101,0.659758,0.586827,1.235314
6281763,18126,19378,8660,75,-1084,-118,0.684210,0.591047,1.242352
6297389,18370,19420,8358,79,-1060,-127,0.737038,0.598890,1.256808
6313016,18464,19492,8092,116,-1031,-122,0.765173,0.602594,1.264175
6328642,18670,19468,8068,152,-1008,-109,0.823112,0.609712,1.279439
6344269,18966,19756,7924,152,-984,-112,0.884747,0.616566,1.295090
6359895,19348,20102,7550,125,-954,-112,0.918701,0.619696,1.302583
6375521,19552,20112,7244,96,-898,-111,0.990283,0.625707,1.316973
6391147,19524,20128,7216,67,-856,-110,1.027294,0.628517,1.323580
6406773,19632,20022,7118,26,-838,-121,1.105828,0.633639,1.335675
6422399,19930,20048,6932,4,-812,-121,1.146869,0.635963,1.341151
6438025,20200,20086,6538,-8,-756,-118,1.231632,0.640544,1.351263
6453652,20294,20036,6448,0,-692,-111,1.271713,0.642701,1.355932
6469277,20258,20040,6666,28,-642,-97,1.346657,0.646938,1.364633
6484903,20304,20162,6712,16,-632,-87,1.417215,0.651102,1.372750
6500530,20384,20266,6890,5,-623,-67,1.451707,0.653106,1.376604
6516156,20586,20308,6594,-31,-623,-62,1.517659,0.657413,1.383228
6531783,20642,20320,6238,-51,-599,-63,1.581158,0.661664,1.389210
6547409,20542,20102,6314,-33,-567,-56,1.611235,0.663706,1.392132
6563035,20502,19876,6450,-15,-561,-56,1.639524,0.665712,1.394976
6578662,20630,19942,6614,-32,-590,-71,1.692551,0.669774,1.400478
6594287,20872,20278,6754,-72,-640,-78,1.719891,0.671564,1.403303
6609914,20950,20384,6358,-140,-677,-51,1.776149,0.675289,1.408565
6625540,20678,19940,6134,-147,-675,-65,1.829562,0.679444,1.413285
6641166,20714,19656,5814,-96,-707,-88,1.855224,0.681195,1.415784
6656793,21200,19596,5482,-27,-731,-107,1.909486,0.684712,1.422976
6672419,21480,19742,5416,38,-724,-109,1.937315,0.686413,1.427631
6688046,21814,20064,5238,36,-724,-115,1.991903,0.689735,1.438037
6703672,21792,20200,4962,4,-705,-99,2.017744,0.691305,1.443256
6719297,21734,20140,4600,-8,-676,-84,2.064011,0.694546,1.452803
6734923,21818,20024,4296,12,-647,-84,2.104936,0.697709,1.461777
6750549,21996,20086,4224,25,-630,-92,2.124218,0.699230,1.466385
6766175,22228,20300,4126,2,-611,-79,2.159871,0.702210,1.475555
6781802,22460,20474,4038,-52,-585,-70,2.175302,0.703753,1.479570
6797428,22456,20492,3820,-111,-545,-69,2.200587,0.706798,1.486037
6813055,22310,20316,3648,-145,-507,-73,2.210055,0.708269,1.488430
6828680,22238,20036,3712,-143,-483,-71,2.225460,0.710872,1.492037
6844307,22424,19852,3838,-119,-485,-65,2.232141,0.712318,1.493743
6859934,22732,19978,3776,-76,-471,-54,2.245235,0.715319,1.497401
6875561,22716,20070,3622,-65,-451,-54,2.257789,0.718487,1.501615
6891187,22614,20178,3466,-62,-433,-55,2.263467,0.720074,1.503686
6906813,22356,20120,3636,-51,-417,-54,2.274375,0.722918,1.507752
6922440,22354,19942,3690,-40,-426,-55,2.279179,0.724219,1.509648
6938067,22480,20012,3630,-56,-452,-75,2.289302,0.726737,1.513777
6953692,22792,19998,3400,-55,-465,-73,2.294631,0.727823,1.515842
6969318,22744,19888,3380,-7,-450,-62,2.305911,0.730155,1.520765
6984944,22488,19764,3378,23,-451,-62,2.311347,0.731522,1.523473
7000570,22320,19894,3470,41,-494,-71,2.323915,0.733798,1.529615
7016196,22566,20098,3248,44,-537,-60,2.337880,0.735812,1.536679
7031822,22748,20144,3338,30,-563,-69,2.353183,0.737854,1.544756
7047447,22656,20038,3322,14,-593,-97,2.360993,0.738612,1.548753
7063073,22484,19824,3194,36,-628,-115,2.368708,0.739179,1.552840
7078699,22614,19698,2954,106,-682,-118,2.386289,0.740044,1.562485
7094325,22988,19654,2598,194,-716,-121,2.397507,0.740468,1.568752
7109951,23320,19808,2104,262,-727,-132,2.422895,2.400342,1.583686
7125577,23336,20324,1860,324,-703,-131,2.450928,2.399872,1.600567
7141203,23242,20750,1602,300,-711,-116,2.464989,2.399842,1.609239
7156829,23210,21014,1386,224,-710,-116,2.490780,2.399845,1.625761
7172454,23456,21096,1062,144,-703,-136,2.502139,2.400192,1.633181
7188081,23746,21166,644,57,-685,-162,2.521025,2.401272,1.646095
7203707,23948,21120,186,-22,-639,-165,2.528736,2.401921,1.651659
7219333,24018,21010,-34,-56,-575,-145,2.539480,2.403153,1.660218
7234960,24142,20992,-54,-84,-525,-136,2.543298,2.403514,1.663654
7250586,24290,21150,-306,-122,-465,-122,2.548017,2.403776,1.669117
7266212,24390,21128,-628,-151,-395,-104,2.549259,2.403648,1.672375
7281839,24396,20914,-874,-151,-293,-86,2.548712,2.403271,1.673285
7297465,24312,20782,-816,-104,-212,-58,2.545375,2.401885,1.673722
7313092,24376,20678,-744,-49,-153,-32,2.543721,2.400797,1.673875
7328718,24488,20796,-538,-17,-104,-7,2.539440,2.397912,1.673869
7344345,24478,20952,-418,-20,-45,-1,2.536912,2.396101,1.673675
7359972,24166,21094,-220,-43,16,-8,2.529894,2.392686,1.671468
7375599,23874,21086,-52,-69,61,2,2.525646,2.391144,1.669540
7391225,23752,20710,272,-62,85,12,2.515507,2.387951,1.664477
7406851,23654,20430,694,-36,76,6,2.504481,2.384571,1.658875
7422478,23772,20420,762,-37,33,-16,2.499313,2.383003,1.656221
7438104,23806,20558,732,-36,14,-11,2.490003,2.380082,1.651602
7453729,23650,20704,996,-16,15,11,2.485954,2.378767,1.649650
7469356,23422,20608,1150,-18,-3,15,2.477437,2.375658,1.645754
7484982,23290,20558,1128,-34,-44,-13,2.473399,2.374339,1.643903
7500609,23342,20428,1104,-13,-86,-19,2.466592,2.372228,1.640751
7516236,23594,20306,1128,32,-136,-42,2.462778,2.370388,1.639625
7531862,23684,20712,1168,25,-184,-52,2.462115,2.369673,1.639839
7547489,23610,20846,1020,31,-199,-22,2.461366,2.368327,1.640807
7563116,23434,20908,1058,37,-202,-27,2.461212,2.367513,1.641508
7578741,23360,20884,782,26,-239,-48,2.461566,2.366372,1.643220
7594368,23644,20860,438,28,-265,-48,2.462265,2.366059,1.644317
7609995,23910,20872,196,26,-269,-53,2.464779,2.365323,1.647620
7625621,24162,21062,84,-4,-250,-64,2.466133,2.364888,1.649413
7641247,24008,21166,2,-49,-215,-48,2.467421,2.364276,1.651737
7656874,23850,20986,-96,-80,-196,-38,2.466527,2.363447,1.652537
7672500,23852,20756,-136,-62,-185,-36,2.465561,2.362874,1.652611
7688127,24066,20618,-408,-10,-179,-31,2.463957,2.361622,1.653167
7703754,24352,20704,-574,33,-143,-15,2.463760,2.360818,1.654020
7719379,24344,20940,-354,51,-95,-6,2.463739,2.358859,1.656054
7735006,24232,21122,-286,29,-68,1,2.462939,2.357726,1.656436
7750633,24038,21152,-320,-3,-45,7,2.460575,2.355649,1.656422
7766260,23874,20760,-216,-24,-23,-7,2.458531,2.354637,1.655720
7781886,24006,20560,-344,-20,-23,-14,2.454057,2.352787,1.653825
7797513,24216,20548,-486,15,6,1,2.449648,2.350828,1.652002
7813138,24316,20680,-186,45,42,11,2.447840,2.349682,1.651455
7828764,24186,20876,78,39,63,15,2.442792,2.347048,1.649381
7844391,23842,20908,206,25,79,14,2.439949,2.345895,1.647891
7860017,23642,20868,226,23,78,9,2.433517,2.343671,1.644305
7875644,23718,20718,264,24,62,1,2.430773,2.342807,1.642624
7891270,23912,20650,308,26,56,-8,2.425326,2.341120,1.639379
7906897,23978,20784,420,19,62,-14,2.420225,2.339422,1.636420
7922524,23784,20994,618,0,67,-9,2.417226,2.338706,1.634560
7938151,23544,21040,786,-20,50,0,2.411012,2.337320,1.630507
7953778,23420,20910,756,-49,20,-8,2.407714,2.336712,1.628355
7969404,23518,20764,746,-51,-12,-12,2.401527,2.335623,1.624288
7985030,23722,20596,818,-18,-30,-10,2.399074,2.335164,1.622677
8000656,23794,20620,722,9,-46,-14,2.395144,2.334003,1.620568
8016282,23770,20810,656,21,-53,-11,2.393810,2.333433,1.619969
8031909,23600,20922,736,26,-58,-2,2.392032,2.332325,1.619504
8047536,23520,20906,712,18,-81,-4,2.392032,2.332325,1.619504
8063161,23628,20808,688,12,-101,-13,2.389553,2.330932,1.618826
8078787,23784,20890,506,-7,-125,-23,2.388886,2.330118,1.619069
8094413,23864,20972,474,-27,-118,-21,2.388715,2.329881,1.619300
8110040,23770,20936,404,-47,-117,-15,2.387756,2.329275,1.619195
8125667,23750,20832,352,-53,-116,-4,2.386803,2.328875,1.619014
8141293,23792,20678,338,-19,-122,5,2.385190,2.327876,1.618770
8156919,23976,20550,156,19,-128,-2,2.384757,2.327278,1.619043
8172545,24060,20724,18,27,-120,-12,2.384793,2.326012,1.620402
8188172,24040,20880,16,28,-92,-10,2.385494,2.324981,1.622101
8203799,23882,20856,252,19,-78,-1,2.385388,2.324532,1.622479
8219425,23786,20836,232,2,-84,-5,2.384539,2.323598,1.622834
8235051,23904,20794,220,-13,-97,-11,2.384105,2.323214,1.622797
8250678,23948,20732,162,-11,-92,-8,2.383329,2.322473,1.622982
8266305,23926,20642,180,0,-80,-12,2.382811,2.321999,1.623060
8281931,23852,20616,202,-6,-74,-22,2.381799,2.321254,1.623022
8297557,23830,20768,274,-11,-80,-20,2.380691,2.320579,1.622904
8313183,23766,20814,426,-16,-88,-14,2.380260,2.320348,1.622798
8328809,23828,20862,354,-35,-94,-27,2.379252,2.319915,1.622384
8344434,23754,20834,288,-46,-97,-31,2.378592,2.319776,1.622119
8360059,23784,20640,258,-40,-99,-26,2.377362,2.319586,1.621473
8375685,23870,20632,134,-39,-106,-38,2.376790,2.319384,1.621165
8391312,23964,20622,164,-12,-103,-35,2.376201,2.319223,1.621051
8406938,23950,20692,208,14,-102,-25,2.376216,2.319006,1.621387
8422564,23828,20772,170,30,-93,-26,2.376566,2.318566,1.622230
8438189,23784,20824,162,39,-92,-22,2.377061,2.318251,1.623204
8453815,23808,20950,172,31,-98,-19,2.377651,2.318084,1.623811
8469442,23852,20928,322,9,-105,-27,2.378103,2.317725,1.624789
8485069,23878,21012,264,-20,-118,-34,2.378558,2.317734,1.625244
8500696,23782,20930,188,-48,-123,-32,2.378211,2.317785,1.625160
8516321,23724,20876,196,-57,-132,-36,2.377878,2.317734,1.625133
8531947,23734,20722,216,-42,-143,-37,2.377707,2.317901,1.625081
8547573,23942,20532,238,7,-164,-35,2.378466,2.317884,1.626179
8563198,23998,20562,-2,47,-167,-40,2.379586,2.317812,1.627375
8578825,24058,20762,-94,74,-166,-41,2.382321,2.317624,1.630402
8594451,23924,20890,-106,82,-154,-36,2.384269,2.317654,1.632216
8610076,23824,20918,-92,70,-152,-32,2.387848,2.317625,1.635733
8625703,23872,20998,-116,40,-157,-34,2.389540,2.317758,1.637369
8641328,24010,21052,-242,20,-158,-22,2.392083,2.317824,1.639865
8656954,24202,20990,-348,-4,-152,-38,2.393151,2.317768,1.641063
8672581,24118,20972,-416,-40,-132,-62,2.394429,2.317864,1.642562
8688207,23970,20888,-430,-38,-115,-45,2.395147,2.318424,1.643054
8703834,23976,20774,-310,-19,-109,-38,2.395059,2.318482,1.643122
8719460,24054,20760,-372,-1,-110,-48,2.395366,2.318561,1.643643
8735086,24158,20900,-382,8,-104,-44,2.395661,2.318499,1.644093
8750712,24066,20984,-382,18,-75,-34,2.396070,2.318512,1.644809
8766339,23978,21064,-350,21,-68,-25,2.396357,2.318457,1.645121
8781965,23962,21080,-372,26,-65,-24,2.396251,2.318216,1.645335
8797592,24072,21042,-400,21,-63,-30,2.396208,2.318170,1.645464
8813218,24032,20994,-352,15,-48,-27,2.396203,2.318013,1.645683
8828845,24032,21044,-368,11,-37,-21,2.395463,2.317689,1.645358
8844470,24060,21068,-446,5,-30,-19,2.394923,2.317533,1.645043
8860096,24104,21016,-334,20,-23,-13,2.393597,2.317166,1.644188
8875722,24072,21074,-350,26,-4,-6,2.392764,2.316761,1.643844
8891348,23942,21084,-280,29,6,0,2.391036,2.316067,1.642817
8906974,23922,21068,-208,32,7,2,2.390131,2.315628,1.642214
8922600,23884,21060,-106,21,-4,2,2.388010,2.314908,1.640866
8938227,24006,21072,-176,4,-20,10,2.385894,2.314182,1.639655
8953853,23996,21048,-110,13,-9,10,2.384746,2.313683,1.638965
8969479,23922,21082,-144,13,-10,6,2.382620,2.312807,1.637831
8985105,23910,21010,-102,15,-15,7,2.381430,2.312420,1.637049
9000731,23900,21014,-26,8,-26,5,2.379550,2.311754,1.635932
9016358,23918,20958,-58,-12,-31,-1,2.378511,2.311337,1.635368
9031985,23932,20888,-72,-22,-37,-1,2.376350,2.310720,1.633967
9047612,24020,20832,-120,-15,-37,0,2.375276,2.310410,1.633329
9063238,24038,20784,-186,12,-29,-3,2.373362,2.309696,1.632231
9078865,23946,20792,-46,34,-25,-1,2.371978,2.308986,1.631639
9094499,23828,20860,-2,43,-33,0,2.371324,2.308601,1.631375
9110124,23888,20874,-76,35,-44,-8,2.370672,2.308059,1.631317
9125751,23936,20788,-126,42,-48,-4,2.370574,2.307975,1.631312
9141377,24084,20816,-198,61,-39,-3,2.370417,2.307389,1.631785
9157004,24090,20894,-168,70,-21,-12,2.370452,2.307126,1.632063
9172630,23958,20978,-34,74,-9,-13,2.370656,2.306734,1.632491
9188257,23794,21020,48,42,-25,-24,2.370636,2.306587,1.632552
9203883,23882,21042,16,6,-37,-33,2.370271,2.306610,1.632097
9219509,23938,20916,-44,-7,-39,-31,2.369606,2.306941,1.631209
9235135,23988,20884,50,-2,-34,-31,2.368978,2.307009,1.630600
9250762,23908,20938,68,6,-38,-34,2.367867,2.307118,1.629477
9266389,23902,20952,-10,18,-36,-30,2.367678,2.307257,1.629184
9282015,23828,20974,70,39,-38,-21,2.367383,2.307315,1.628759
9297641,23870,20960,46,52,-52,-22,2.367383,2.307315,1.628759
9313267,23940,21038,74,47,-58,-28,2.367832,2.307381,1.629200
9328894,24026,21156,-22,42,-54,-21,2.368426,2.307419,1.629737
9344520,23902,21218,52,23,-47,-25,2.368668,2.307476,1.629838
9360146,23856,21212,88,0,-55,-20,2.368446,2.307721,1.629471
9375773,23820,21118,74,-8,-58,-15,2.368217,2.307815,1.629184
9391399,23888,21028,38,-7,-59,-19,2.367322,2.307776,1.628499
9407025,23962,20996,22,-1,-65,-24,2.367094,2.307869,1.628212
9422650,23958,20962,90,12,-59,-16,2.366640,2.307745,1.628047
9438276,23912,20994,-12,28,-53,-6,2.366599,2.307699,1.628053
9453902,23952,20986,6,59,-52,4,2.366407,2.307374,1.628248
9469529,23844,20994,48,88,-56,10,2.366531,2.306734,1.629020
9485156,23920,21066,4,98,-64,12,2.367156,2.306511,1.629834
9500783,23984,21166,-16,97,-64,9,2.368439,2.305958,1.631538
9516409,23950,21296,-104,68,-60,4,2.368922,2.305608,1.632464
9532035,23918,21352,-18,15,-53,5,2.369691,2.305358,1.633376
9547661,23846,21332,14,-23,-46,15,2.369058,2.305119,1.633052
9563287,23838,21048,20,-38,-58,4,2.367377,2.304871,1.631820
9578914,24002,20824,-176,-50,-73,-15,2.366420,2.304640,1.631203
9594540,24116,20768,-182,-34,-63,-8,2.365163,2.304563,1.630233
9610167,24036,20814,-130,-3,-47,-5,2.363897,2.304182,1.629656
9625793,23974,20808,-48,22,-36,0,2.363269,2.303942,1.629332
9641420,23916,20910,-54,38,-36,6,2.362480,2.303427,1.629070
9657045,23922,20986,-44,50,-35,6,2.362319,2.303151,1.629134
9672670,23980,20962,-36,46,-39,-3,2.362101,2.302680,1.629392
9688296,23952,21042,76,38,-33,-5,2.362092,2.302528,1.629472
9703923,23930,21004,66,29,-31,-5,2.361449,2.302294,1.629127
9719550,23932,21058,84,7,-29,-10,2.360581,2.302153,1.628494
9735176,23868,21064,114,1,-27,-7,2.360050,2.302153,1.627967
9750803,23860,21040,250,6,-37,-8,2.358894,2.302069,1.626907
9766430,23850,20986,134,7,-43,-19,2.358364,2.302069,1.626379
9782057,23822,20960,126,21,-49,-10,2.357805,2.302176,1.625780
9797683,23900,20968,118,46,-52,2,2.357525,2.302074,1.625686
9813309,23818,20990,152,62,-57,3,2.357949,2.301837,1.626289
9828934,23882,21026,198,69,-67,3,2.358036,2.301614,1.626580
9844560,23830,21224,140,55,-70,9,2.358910,2.301442,1.627754
9860185,23902,21292,108,32,-71,16,2.359390,2.301090,1.628577
9875811,23860,21236,96,-5,-74,2,2.359349,2.300890,1.628792
9891437,23838,21190,6,-29,-82,-3,2.359110,2.300928,1.628660
9907063,23988,21018,-138,-34,-80,6,2.358751,2.300891,1.628377
9922689,24064,20922,-238,-24,-67,7,2.357697,2.300520,1.627912
9938314,24046,20896,-170,-12,-54,3,2.357281,2.300288,1.627823
9953940,24006,20918,-134,-7,-42,9,2.356244,2.299816,1.627411
9969567,24036,20970,-200,10,-24,20,2.355527,2.299491,1.627082
9985193,24024,20898,-174,23,-13,19,2.353980,2.298762,1.626399
10000819,23988,20844,-200,22,-6,13,2.352491,2.297976,1.625651
10016445,24042,20852,-182,12,10,10,2.351995,2.297714,1.625401
10032070,24038,20878,-160,20,27,14,2.350028,2.297125,1.624031
10047696,23978,20902,-68,11,34,8,2.348890,2.296785,1.623224
10063322,23958,20940,10,3,47,5,2.346266,2.296280,1.620958
10078947,23906,20850,68,12,56,5,2.344779,2.295960,1.619707
10094573,23922,20746,56,27,58,1,2.342175,2.295663,1.617219
10110199,24018,20788,140,57,65,-1,2.339778,2.295274,1.615145
10125826,24044,20816,90,79,79,1,2.338675,2.295037,1.614186
10141452,23990,20972,128,73,87,-6,2.336767,2.294712,1.612479
10157078,23924,21070,120,53,103,-7,2.335916,2.294584,1.611484
10172705,23798,21104,224,47,114,1,2.333194,2.294529,1.608729
10188332,23800,21034,280,40,117,2,2.331550,2.294510,1.607022
10203958,23894,21022,200,38,128,2,2.328075,2.294356,1.603585
10219584,23968,20946,256,44,143,12,2.326333,2.294308,1.601862
10235210,23914,20996,264,17,178,1,2.321945,2.293829,1.597913
10250836,23836,20990,426,8,193,4,2.316614,2.293611,1.592775
10266462,23798,20994,476,14,204,23,2.313572,2.293529,1.589955
10282087,23786,20860,552,25,217,30,2.306895,2.292878,1.584050
10297713,23760,20752,604,51,229,25,2.303611,2.292597,1.581135
10313339,23796,20782,658,58,244,22,2.297159,2.291957,1.575706
10328966,23808,20826,778,58,251,27,2.293614,2.291629,1.572750
10344591,23716,20972,886,46,266,26,2.286407,0.850586,1.566697
10360218,23598,20998,1082,12,283,19,2.282376,0.850851,1.563287
10375844,23494,20798,1188,8,291,30,2.273792,0.850879,1.555572
10391471,23436,20684,1282,22,292,26,2.264404,0.851196,1.547689
10407097,23620,20632,1354,51,290,18,2.259854,0.851276,1.543841
10422724,23604,20680,1400,71,303,25,2.251156,0.851537,1.536860
10438350,23478,20760,1540,73,316,22,2.246895,0.851628,1.533391
10453977,23372,20836,1724,68,318,19,2.237782,0.851683,1.526138
10469604,23226,20850,1758,73,315,26,2.233130,0.851684,1.522445
10485229,23246,20834,1828,82,322,24,2.223937,0.851455,1.515250
10500855,23298,20790,1938,91,323,20,2.214838,0.851156,1.508371
10516481,23286,20864,2038,79,327,16,2.210110,0.850989,1.504793
10532107,23188,20926,2300,64,335,16,2.200505,0.850513,1.497596
10547734,23112,20912,2334,58,337,20,2.195220,0.850162,1.493671
10563360,23084,20910,2374,44,341,20,2.184358,0.849499,1.485751
10578987,22986,20802,2478,45,349,23,2.178676,0.849085,1.481487
10594612,23028,20694,2604,66,349,29,2.166965,0.848441,1.473329
10610239,23050,20814,2718,66,347,23,2.161507,0.848216,1.469623
10625866,23068,21016,2926,36,346,7,2.149813,0.847440,1.461822
10641498,22832,21160,3070,-11,348,-6,2.137493,0.846139,1.453233
10657124,22646,21184,3088,-71,345,-14,2.130745,0.845194,1.448456
10672750,22532,21058,3254,-123,340,-11,2.116834,0.843178,1.438097
10688375,22508,20842,3408,-147,329,-15,2.109411,0.842055,1.432440
10704001,22610,20558,3430,-129,318,-9,2.094407,0.840047,1.421267
10719627,22674,20384,3514,-79,313,0,2.087275,0.839280,1.416038
10735254,22712,20350,3582,-27,309,1,2.073727,0.837967,1.406791
10750880,22614,20594,3690,30,318,3,0.874081,-1.680684,-1.667113
10766506,22392,20780,3762,55,320,30,2.055949,0.835923,1.395802
10782133,22296,20684,3738,80,323,38,2.044325,0.834881,1.389615
10797759,22348,20624,3672,117,327,33,2.038761,0.834304,1.386719
10813386,22554,20656,3706,151,338,39,2.028044,0.833288,1.381799
10829012,22624,20756,3718,155,364,41,2.022420,0.832812,1.379614
10844639,22536,21014,3836,126,398,35,2.010148,0.831752,1.374482
10860266,22334,21096,3960,75,428,37,2.002858,0.830977,1.371281
10875893,22124,20932,4092,42,449,45,1.986239,0.829338,1.363316
10891519,22160,20694,4136,49,467,49,1.967676,0.827515,1.354290
10907146,22146,20610,4200,58,494,45,1.957866,0.826632,1.349757
10922773,22204,20692,4448,59,527,45,1.936669,0.824739,1.340076
10938399,22080,20774,4628,37,558,39,1.925255,0.823753,1.335060
10954026,21860,20924,4810,0,586,31,1.900169,0.821066,1.323570
10969651,21616,20898,4956,-42,601,33,1.886510,0.819474,1.317192
10985278,21446,20710,5072,-61,611,40,1.857550,0.816054,1.303499
11000904,21348,20424,5316,-44,623,32,1.842824,0.814289,1.296553
11016531,21408,20188,5468,26,651,36,1.812111,0.810642,1.282831
11032158,21324,20230,5688,91,673,41,1.780452,0.806952,1.270296
11047785,21186,20400,5894,131,685,37,1.764050,0.805044,1.264522
11063411,20992,20742,6090,123,698,33,1.730651,0.800837,1.253463
11079038,20758,21056,6242,63,708,22,1.713065,0.798314,1.247772
11094665,20428,21084,6366,8,715,21,1.677135,0.792883,1.235325
11110291,20268,20636,6488,-1,724,16,1.658900,0.789938,1.228670
11125917,20248,20280,6790,41,726,10,1.621330,0.783888,1.215414
11141544,20352,20302,7222,124,714,5,1.583576,0.778008,1.203744
11157171,20158,20702,7304,136,718,6,1.564363,0.775039,1.198452
11172798,19860,21148,7660,94,716,8,1.525936,0.768790,1.188376
11188424,19502,21272,7664,7,705,0,1.506555,0.765334,1.182936
11204049,19226,21028,7670,-54,693,-2,1.469359,0.758188,1.171055
11219675,19078,20544,7812,-46,676,-5,1.451513,0.754749,1.164887
11235301,19180,20280,7984,6,655,-8,1.416670,0.747749,1.153227
11250928,19236,20340,8208,69,635,5,1.399799,0.744488,1.148202
11266555,19072,20578,8294,119,638,38,1.365619,0.738494,1.139531
11282181,18810,20680,8312,134,634,45,1.330546,0.732918,1.132032
11297807,18508,20840,8442,123,621,46,1.313087,0.729990,1.128605
11313433,18446,20944,8578,99,614,49,1.278952,0.724293,1.121825
11329059,18354,20834,8652,79,611,44,1.262185,0.721327,1.118331
11344685,18348,20758,8664,58,614,39,1.229623,0.715437,1.111191
11360311,18280,20658,8844,64,622,45,1.213592,0.712453,1.107440
11375938,18150,20656,8894,69,630,49,1.181069,0.706631,1.100098
11391564,17978,20770,8978,74,641,48,1.148563,0.700593,1.092796
11407190,17778,20720,9044,75,665,55,1.132072,0.697573,1.089258
11422815,17644,20718,9316,73,677,51,1.098395,0.691278,1.082005
11438441,17516,20830,9404,60,673,40,1.081614,0.688004,1.078291
11454068,17292,20832,9562,31,674,45,1.049422,0.681123,1.070765
11469695,17142,20754,9706,2,685,49,1.033885,0.677601,1.066786
11485322,16902,20726,9904,0,681,43,1.003709,0.670523,1.058331
11500947,16812,20780,9982,-24,668,31,0.989194,0.666947,1.054126
11516573,16694,20664,10092,-46,672,29,0.962351,0.659535,1.045542
11532199,16334,20370,10164,-22,673,34,0.936505,0.652099,1.037060
11547826,16106,20216,10292,28,671,41,0.923792,0.648264,1.032976
11563452,15960,20312,10614,85,654,40,0.897029,0.641021,1.026257
11579079,15966,20596,10782,88,629,33,0.883537,0.637412,1.023590
11594705,15834,20810,10818,62,624,31,0.858464,0.630096,1.018418
11610331,15454,20646,10772,53,621,43,0.846585,0.626521,1.015924
11625958,15144,20410,10840,63,613,35,0.823379,0.619270,1.010776
11641585,14992,20318,11020,103,593,21,0.801050,0.611955,1.006624
11657210,15070,20558,11202,129,557,32,0.789894,0.608525,1.005077
11672836,15024,20760,11152,111,549,33,0.768296,0.601785,1.002397
11688462,14820,20880,11140,91,551,29,0.758019,0.598548,1.001169
11704088,14582,20800,11088,75,552,25,0.738660,0.591927,0.998246
11719715,14306,20660,11138,107,550,32,0.729283,0.588461,0.996821
11735342,14328,20590,11302,140,538,37,0.709744,0.581784,0.994672
11750969,14302,20684,11368,155,532,33,0.699731,0.578512,0.993940
11766596,14178,20816,11496,172,536,42,0.680020,0.572158,0.992787
11782222,14006,21092,11420,180,539,42,0.659818,0.565853,0.992171
11797848,13794,21166,11462,175,545,40,0.649604,0.562699,0.991906
11813475,13618,21118,11552,155,546,42,0.629911,0.556029,0.991439
11829101,13490,21078,11570,131,545,33,0.620940,0.552716,0.990956
11844727,13336,21038,11688,122,548,32,0.603414,0.545933,0.989654
11860353,13116,21128,11804,121,540,46,0.594972,0.542538,0.988988
11875978,13030,21214,11812,97,530,52,0.578739,0.536070,0.987275
11891605,12910,21228,11708,90,535,59,0.563695,0.529716,0.985431
11907232,12678,21064,11808,110,536,67,0.555773,0.526629,0.984525
11922858,12606,21150,12018,111,526,57,0.540504,0.520308,0.983012
11938485,12428,21336,11994,109,522,66,0.533114,0.517227,0.982311
11954111,12336,21350,11854,79,535,70,0.518843,0.511011,0.980801
11969737,12250,21288,11752,69,551,69,0.511926,0.508025,0.979898
11985363,11956,21226,11910,60,577,64,0.498581,0.501561,0.977651
12000988,11692,21244,12108,41,575,70,0.492106,0.498166,0.976383
12016614,11604,21212,12140,33,577,80,0.479937,0.491290,0.973348
12032239,11548,21170,11894,38,587,84,0.473960,0.488039,0.971727
12047865,11432,21056,11874,68,615,89,0.461570,0.481300,0.968954
12063499,11046,21082,12206,84,641,89,0.448426,0.474569,0.966522
12079124,10738,21296,12360,85,638,98,0.441570,0.470874,0.965359
12094751,10546,21370,12462,55,628,99,0.428751,0.463461,0.962918
12110377,10448,21360,12368,27,631,94,0.422902,0.459802,0.961541
12126003,10280,21300,12342,5,639,88,0.412254,0.452250,0.958307
12141630,10084,21124,12508,8,638,91,0.402291,0.444748,0.954763
12157257,9848,21148,12714,20,623,96,0.397505,0.440979,0.953101
12172884,9512,21342,12842,-13,590,105,0.392795,0.437202,0.951468
12188511,9340,21382,12896,-25,560,114,0.384174,0.429998,0.948067
12204138,9240,21368,12856,-18,539,113,0.376574,0.423368,0.944763
12219764,9118,21232,12898,-37,517,106,0.373029,0.420100,0.943185
12235390,8952,21100,12960,-45,491,106,0.366529,0.413954,0.940088
12251017,8718,20990,12916,-64,466,100,0.363571,0.410838,0.938548
12266644,8306,20948,13178,-88,431,105,0.358657,0.405195,0.935328
12282271,8096,20966,13356,-135,373,102,0.356676,0.402484,0.933402
12297897,8248,21098,13424,-206,300,34,0.355071,0.397308,0.929077
12313523,8152,20744,13512,-252,250,20,0.356613,0.392268,0.924282
12329148,8136,20188,13248,-217,198,36,0.358192,0.389990,0.921609
12344774,8152,20062,13078,-173,160,8,0.360541,0.386405,0.917297
12360401,8228,20030,12722,-92,136,5,0.361409,0.384788,0.916085
12376028,8274,20122,12732,-9,127,18,0.361304,0.381956,0.915491
12391653,8378,20286,12570,39,123,16,0.359003,0.379589,0.917181
12407279,8574,20500,12242,99,141,24,0.357025,0.378382,0.918659
12422906,8576,20616,12110,125,172,33,0.354568,0.377266,0.920619
12438532,8612,20790,12140,133,222,33,0.348363,0.374897,0.924897
12454158,8460,20772,12164,132,260,40,0.341911,0.371856,0.928827
12469784,8334,20806,12084,155,299,54,0.338544,0.370141,0.930587
12485411,8340,20878,11850,211,340,69,0.330499,0.366385,0.934691
12501038,8138,21126,12002,235,391,81,0.325487,0.364452,0.937135
12516665,7876,21046,12406,267,432,111,0.314782,0.360131,0.942074
12532290,7640,21196,12334,290,452,135,0.308777,0.357863,0.944517
12547917,7594,21358,12080,249,473,130,0.296521,0.353291,0.949436
12563544,7198,21460,12310,265,537,125,0.284912,0.348057,0.953689
12579171,6676,21450,12516,204,555,105,0.279081,0.345116,0.955641
12594797,6416,21508,12830,160,534,113,0.269604,0.338337,0.958212
12610424,6370,21480,12850,113,509,101,0.265766,0.335027,0.958900
12626049,6218,21470,12994,59,494,72,0.259239,0.328511,0.959563
12641675,6022,21382,13140,51,458,86,0.254643,0.321964,0.959138
12657301,5818,21224,13152,99,419,91,0.252178,0.319074,0.959205
12672927,5720,21272,13076,128,376,79,0.249529,0.316280,0.959707
12688553,5530,21388,13200,142,316,74,0.244488,0.310941,0.961526
12704179,5400,21488,13236,115,262,56,0.239858,0.306238,0.963783
12719806,5412,21502,13282,95,210,45,0.238220,0.303980,0.964868
12735432,5448,21532,13076,85,159,38,0.235440,0.300096,0.966929
12751058,5498,21558,12882,72,120,29,0.234423,0.298406,0.968043
12766684,5590,21644,12572,63,102,19,0.232663,0.295522,0.970374
12782310,5582,21728,12544,54,96,17,0.231780,0.294150,0.971626
12797937,5450,21716,12696,26,93,15,0.230426,0.291474,0.973944
12813563,5436,21562,12654,9,77,13,0.230009,0.290128,0.974679
12829190,5606,21512,12258,18,75,13,0.229634,0.287682,0.976028
12844815,5684,21550,12124,41,86,14,0.228846,0.285351,0.977903
12860441,5680,21662,11990,42,117,23,0.228030,0.284263,0.979107
12876067,5648,21686,11966,26,153,24,0.226209,0.281885,0.981229
12891694,5406,21650,12228,23,171,30,0.224368,0.279018,0.982873
12907320,5414,21686,12366,1,180,9,0.223738,0.277425,0.983493
12922946,5284,21678,12228,-27,192,12,0.223389,0.275632,0.983797
12938571,5190,21452,12262,3,198,31,0.222797,0.272092,0.984090
12954198,5148,21532,12234,23,211,23,1.660296,-0.979757,-0.642899
12969824,5076,21650,12370,78,215,44,0.220723,0.266856,0.985417
12985451,5036,21684,12562,88,217,36,0.217765,0.263551,0.987697
13001077,4824,21670,12626,71,211,35,0.216516,0.261839,0.988682
13016703,4592,21600,12888,105,186,55,0.214109,0.258461,0.990559
13032330,4450,21608,12976,124,144,50,0.212652,0.257005,0.991705
13047956,4370,21806,12704,102,96,40,0.210154,0.254278,0.994371
13063582,4458,22044,12652,68,59,35,0.209218,0.253093,0.995763
13079208,4364,22282,12782,-1,41,13,0.208031,0.251126,0.998007
13094835,4192,22072,12772,-93,7,3,0.208743,0.248910,0.998691
13110461,4226,21688,12600,-151,-27,-10,0.209996,0.247912,0.998196
13126088,4564,21384,12242,-148,-50,-13,0.213620,0.246099,0.996319
13141714,4712,21202,12050,-105,-44,-13,0.215265,0.245483,0.995567
13157341,4766,21352,11998,-51,-28,-20,0.217395,0.244439,0.995072
13172967,4736,21632,11898,-38,-4,-13,0.218156,0.243746,0.995436
13188594,4772,21652,11868,-51,22,7,0.218920,0.242349,0.996294
13204220,4710,21544,11956,-65,68,2,0.219247,0.241568,0.996537
13219845,4600,21386,11972,-57,81,18,0.219790,0.239843,0.996652
13235471,4584,21296,11958,-13,93,25,0.220028,0.237972,0.996643
13251098,4630,21582,12106,-9,110,13,0.219684,0.236936,0.997098
13266724,4546,21732,12234,-25,121,22,0.219259,0.234748,0.997726
13282351,4200,21690,12636,-31,119,41,0.219089,0.233563,0.997939
13297978,3866,21530,12916,-65,85,37,0.218906,0.231467,0.997747
13313605,3802,21364,12824,-93,32,18,0.219296,0.230510,0.997321
13329232,3920,21140,12732,-71,-8,12,0.221322,0.228571,0.995965
13344858,4018,20930,12514,-31,-38,5,0.222792,0.227401,0.995682
13360485,3966,21006,12508,18,-63,1,0.223379,0.226921,0.995869
13376111,4100,21226,12108,51,-81,-7,0.223823,0.226185,0.997588
13391737,4356,21436,11972,52,-79,-12,0.223908,0.225816,0.999046
13407362,4398,21518,11992,61,-58,-6,0.223693,0.225252,1.001981
13422987,4310,21532,12030,66,-41,6,0.223241,0.224984,1.003466
13438612,4254,21654,11906,32,-25,2,0.222525,0.224288,1.006251
13454238,4152,21566,12164,8,-14,9,0.222433,0.223851,1.007248
13469865,3938,21336,12762,-7,-30,-1,0.222541,0.222829,1.008704
13485498,3912,21314,12816,-3,-59,-9,0.223627,0.221629,1.009318
13501125,4016,21336,12546,11,-84,-12,0.224255,0.221129,1.009756
13516751,4294,21420,12116,20,-92,-7,0.225387,0.220398,1.011072
13532377,4364,21498,11990,24,-81,-9,0.225770,0.220147,1.012973
13548003,4296,21488,11860,-4,-74,-6,0.225930,0.220000,1.013906
13563629,4378,21288,11884,-42,-52,-12,0.226326,0.219745,1.014494
13579256,4206,21040,12400,-3,-38,-15,0.227310,0.219143,1.015202
13594882,4134,21220,12602,87,-50,3,0.227808,0.218561,1.015705
13610509,4038,21464,12456,91,-67,-4,0.227436,0.217956,1.018008
13626135,4172,21734,12114,22,-72,-21,0.227330,0.217218,1.020489
13641761,4244,21552,12106,-3,-67,-13,0.227715,0.216818,1.021267
13657387,4282,21388,12088,-3,-64,-10,0.228560,0.216198,1.022530
13673014,4272,21390,12078,-3,-56,-13,0.228997,0.215987,1.022953
13688640,4152,21396,12282,21,-56,-13,0.229756,0.215336,1.024120
13704266,4186,21418,12328,23,-60,-13,0.230019,0.214996,1.024772
13719892,4134,21392,12382,14,-58,-15,0.230731,0.214292,1.026099
13735517,4114,21474,12356,3,-73,-12,0.231723,0.213528,1.027051
13751143,4218,21496,12150,-22,-84,-15,0.232310,0.213245,1.027525
13766770,4264,21542,12212,-23,-84,-8,0.233677,0.212867,1.028021
13782396,4244,21618,12286,-5,-77,0,0.234312,0.212772,1.028275
13798022,4264,21758,12242,-36,-70,-1,0.235193,0.212619,1.029002
13813647,4254,21440,12288,-76,-67,0,0.235878,0.212439,1.029020
13829273,4290,20926,12238,-101,-64,-12,0.237986,0.212095,1.028079
13844900,4294,20682,12078,-71,-67,-13,0.239264,0.211931,1.027352
13860526,4294,20824,12300,68,-65,-2,0.241025,0.211604,1.026885
13876151,4292,21338,12240,109,-70,-7,0.240576,0.211484,1.029047
13891777,4370,21708,12172,63,-65,-14,0.240215,0.211265,1.030452
13907404,4336,21548,12306,17,-57,-7,0.240072,0.210784,1.032609
13923030,4298,21268,12238,-3,-55,-11,0.240382,0.210626,1.033038
13938656,4284,21182,12316,15,-57,-9,0.241305,0.210106,1.033640
13954282,4296,21232,12332,48,-63,-6,0.241544,0.209905,1.034168
13969908,4398,21420,12204,53,-60,-7,0.241672,0.209656,1.035641
13985535,4292,21484,12148,21,-55,-10,0.241601,0.209519,1.036481
14001162,4284,21322,12258,-1,-53,-11,0.241918,0.209108,1.037901
14016789,4178,21290,12294,8,-55,-8,0.242911,0.208625,1.038401
14032416,4218,21350,12252,17,-59,-9,0.243260,0.208377,1.038724
14048043,4214,21372,12282,20,-57,-7,0.243997,0.207855,1.039625
14063669,4200,21346,12246,21,-61,-5,0.244305,0.207693,1.040052
14079296,4222,21386,12230,12,-65,-6,0.244921,0.207368,1.040906
14094922,4252,21384,12122,1,-65,-3,0.245203,0.207215,1.041271
14110548,4228,21268,12276,-4,-60,-3,0.246135,0.206964,1.041755
14126175,4278,21194,12176,4,-61,-5,0.247043,0.206723,1.042177
14141802,4274,21148,12320,42,-61,-1,0.247423,0.206601,1.042505
14157428,4344,21286,12290,47,-68,-9,0.247598,0.206396,1.043681
14173053,4404,21434,12180,50,-67,-1,0.247627,0.206341,1.044391
14188680,4404,21446,12178,27,-52,-8,0.247619,0.206274,1.045814
14204307,4334,21370,12220,23,-46,-2,0.247725,0.206126,1.046349
14219933,4232,21324,12382,30,-54,-6,0.248124,0.205830,1.047117
14235559,4266,21344,12312,19,-61,-12,0.248497,0.205567,1.047500
14251186,4314,21330,12286,33,-65,-3,0.249157,0.205286,1.048190
14266812,4330,21388,12154,38,-61,-7,0.249506,0.205205,1.049137
14282438,4410,21568,12150,23,-56,-7,0.249764,0.204984,1.049723
14298065,4294,21392,12228,-1,-44,-9,0.250222,0.204719,1.050522
14313691,4186,21088,12276,-15,-46,-8,0.250757,0.204465,1.050539
14329317,4220,20914,12266,24,-63,-8,0.251988,0.204023,1.050568
14344944,4402,21122,12082,69,-66,-11,0.252342,0.203907,1.050832
14360570,4348,21512,12250,98,-52,-5,0.252028,0.203741,1.052683
14376195,4172,21840,12368,51,-49,-1,0.251623,0.203650,1.053833
14391821,4166,21700,12242,-16,-57,-5,0.251502,0.203268,1.055268
14407448,4240,21342,12200,-44,-60,-7,0.252937,0.202805,1.055186
14423073,4322,21138,12218,-2,-56,-2,0.253731,0.202724,1.054877
14438700,4214,21260,12258,27,-57,-7,0.254750,0.202586,1.054842
14454326,4210,21376,12196,29,-62,-4,0.254927,0.202476,1.055277
14469952,4308,21478,12210,19,-63,-3,0.255517,0.202282,1.056007
14485577,4316,21386,12196,-1,-60,-8,0.255817,0.202268,1.056183
14501203,4328,21270,12190,3,-58,-2,0.256918,0.202015,1.056296
14516829,4318,21232,12272,34,-56,-2,0.257649,0.201925,1.056637
14532455,4328,21342,12232,46,-59,-1,0.257730,0.201921,1.057053
14548080,4272,21426,12194,36,-55,-3,0.258016,0.201792,1.057965
14563706,4186,21470,12338,37,-54,-2,0.258192,0.201679,1.058400
14579332,4262,21438,12324,10,-60,-7,0.258722,0.201447,1.059096
14594958,4268,21324,12222,2,-62,-5,0.259220,0.201274,1.059216
14610584,4330,21254,12156,25,-60,-1,0.260128,0.201176,1.059384
14626210,4322,21232,12188,37,-53,-3,0.260354,0.201117,1.059658
14641836,4268,21318,12280,49,-56,-1,0.260610,0.200997,1.060507
14657462,4324,21350,12278,51,-61,-6,0.260893,0.200863,1.061419
14673087,4320,21300,12206,51,-60,-10,0.260992,0.200705,1.061950
14688714,4318,21270,12232,68,-61,-4,0.261155,0.200611,1.063065
14704341,4354,21446,12064,84,-56,-5,0.261134,0.200492,1.063800
14719968,4342,21574,12242,81,-49,-8,0.260638,0.200372,1.065597
14735595,4338,21712,12246,52,-47,-4,0.260409,0.200270,1.066442
14751221,4210,21616,12344,18,-52,-7,0.260590,0.199971,1.067312
14766847,4266,21462,12212,5,-64,-7,-1.149219,-2.254359,1.675394
14782473,4368,21426,12162,10,-62,-10,0.262274,0.199579,1.067443
14798099,4332,21494,12210,6,-53,-8,0.263185,0.199474,1.067609
14813725,4230,21500,12274,-1,-55,-6,0.263735,0.199355,1.067567
14829351,4246,21448,12286,-4,-61,-8,0.264915,0.199160,1.067387
14844977,4266,21386,12224,-12,-64,-12,0.265673,0.199023,1.067236
14860604,4332,21300,12218,8,-56,-7,0.267092,0.198856,1.066914
14876230,4258,21342,12256,21,-51,-9,0.267594,0.198681,1.067032
14891855,4246,21464,12344,17,-54,-9,0.268371,0.198499,1.067263
14907482,4264,21416,12256,22,-61,-8,0.269346,0.198160,1.067436
14923108,4348,21408,12174,18,-61,-8,0.269780,0.198080,1.067599
14938734,4294,21462,12242,26,-55,-9,0.270599,0.198024,1.067839
14954359,4244,21492,12276,25,-58,-10,0.270953,0.197899,1.068098
14969985,4268,21476,12222,9,-61,-10,0.271861,0.197655,1.068315
14985612,4250,21418,12206,-1,-59,-10,0.272445,0.197523,1.068335
15001238,4322,21332,12232,4,-57,-9,0.273694,0.197362,1.068185
15016864,4276,21356,12246,24,-54,-6,0.274249,0.197242,1.068142
15032498,4194,21428,12250,25,-54,-11,0.274950,0.197015,1.068468
15048124,4266,21362,12238,19,-59,-9,0.275682,0.196775,1.068857
15063750,4334,21316,12184,23,-61,-9,0.276199,0.196737,1.068922
15079377,4398,21280,12184,40,-61,-9,0.276944,0.196635,1.069258
15095003,4354,21352,12206,61,-56,-13,0.277101,0.196665,1.069574
15110629,4368,21568,12222,75,-51,-11,0.277252,0.196414,1.070737
15126255,4326,21746,12308,62,-49,-7,0.277096,0.196347,1.071483
15141880,4244,21742,12318,21,-45,-8,0.277154,0.196074,1.072551
15157506,4270,21434,12320,-15,-57,-13,0.278421,0.195783,1.072323
15173133,4340,21312,12280,1,-62,-14,0.279241,0.195703,1.072010
15188758,4354,21284,12138,25,-58,-15,0.280500,0.195540,1.071857
15204385,4330,21486,12136,42,-52,-6,0.280938,0.195457,1.072018
15220012,4236,21638,12294,42,-49,-6,0.281271,0.195362,1.072765
15235639,4136,21624,12326,11,-52,-5,0.281485,0.195156,1.073087
15251266,4194,21418,12272,-15,-61,-6,0.282687,0.194960,1.072902
15266892,4278,21252,12204,0,-66,-7,0.283543,0.194868,1.072651
15282517,4328,21358,12170,52,-64,-6,0.284607,0.194861,1.072557
15298142,4284,21630,12034,42,-55,-6,0.284904,0.194845,1.073411
15313768,4278,21624,12290,22,-44,-3,0.285062,0.194872,1.073727
15329394,4142,21504,12424,0,-48,-5,0.285792,0.194651,1.073922
15345020,4198,21348,12300,-6,-66,-5,0.286476,0.194495,1.073673
15360647,4358,21338,12088,13,-71,-7,0.287912,0.194421,1.073327
15376273,4474,21430,12208,38,-62,-5,0.288335,0.194490,1.073373
15391900,4340,21572,12208,41,-55,-4,0.288699,0.194669,1.074017
15407526,4308,21602,12124,4,-50,-7,0.288928,0.194601,1.074288
15423152,4268,21392,12314,0,-51,-5,0.289927,0.194422,1.074213
15438779,4260,21338,12306,3,-54,-7,0.291192,0.194285,1.073868
15454406,4222,21408,12218,14,-60,-5,0.291713,0.194271,1.073741
15470032,4320,21416,12150,24,-62,-9,0.292738,0.194206,1.073805
15485658,4352,21492,12168,27,-55,-10,0.293182,0.194121,1.073965
15501284,4256,21466,12254,24,-48,-5,0.293779,0.194088,1.074250
15516910,4230,21492,12282,14,-52,-8,0.294165,0.193970,1.074378
15532537,4198,21518,12270,16,-56,-5,0.295099,0.193885,1.074348
15548163,4254,21432,12214,13,-62,-5,0.296163,0.193739,1.074304
15563789,4336,21468,12238,15,-61,-5,0.296695,0.193699,1.074367
15579416,4316,21528,12164,19,-55,-6,0.297432,0.193770,1.074397
15595043,4278,21444,12212,6,-53,-10,0.297966,0.193730,1.074460
15610670,4240,21390,12258,0,-55,-8,0.299026,0.193610,1.074225
15626296,4276,21372,12194,15,-56,-7,0.299811,0.193474,1.074069
15641922,4264,21372,12282,32,-56,-5,0.300786,0.193375,1.074101
15657548,4296,21480,12218,35,-54,-3,0.301070,0.193365,1.074212
15673174,4290,21480,12198,19,-53,-10,0.301551,0.193365,1.074702
15688799,4256,21448,12208,11,-55,-7,0.302511,0.193126,1.074783
15704425,4226,21438,12252,27,-58,-5,0.303100,0.193146,1.074688
15720050,4256,21590,12278,30,-57,-7,0.303740,0.193097,1.075035
15735676,4224,21564,12246,16,-57,-5,0.304154,0.193025,1.075131
15751303,4274,21470,12254,-3,-59,-7,0.305135,0.192925,1.075162
15766929,4286,21380,12196,-9,-57,-10,0.305796,0.192851,1.075020
15782555,4306,21292,12150,5,-57,-8,0.307281,0.192855,1.074451
15798181,4238,21408,12266,41,-52,-7,0.307725,0.192797,1.074420
15813808,4224,21570,12286,44,-60,-5,0.308370,0.192746,1.074767
15829434,4320,21614,12246,27,-62,-8,0.308804,0.192684,1.075414
15845059,4372,21546,12212,8,-59,-8,0.309309,0.192658,1.075414
15860685,4336,21372,12196,2,-49,-8,0.310348,0.192618,1.075287
15876310,4224,21310,12194,14,-50,-7,0.311013,0.192544,1.075145
15891936,4164,21370,12316,34,-52,-7,0.311913,0.192399,1.075271
15907562,4150,21462,12316,41,-59,-8,0.312270,0.192294,1.075335
15923189,4258,21638,12376,19,-51,-24,0.312998,0.192120,1.075824
15938816,4416,21458,12324,-19,-58,-13,0.314643,0.191616,1.075510
15954443,4320,21506,12152,-3,-50,-18,0.315582,0.191588,1.075099
15970070,4166,21598,12036,15,-55,-4,0.316790,0.191409,1.074847
15985697,4048,21470,12182,-8,-44,3,0.317116,0.191383,1.075019
16001323,4166,21194,12438,-30,-49,-5,0.318408,0.191279,1.074482
16016950,4338,20868,12356,-9,-48,-13,0.319541,0.191126,1.073818
16032577,4282,20708,12184,58,-49,-13,0.320964,0.190962,1.073265
16048203,4352,20904,12082,153,-65,-20,0.320950,0.190983,1.073753
16063829,4432,21724,11974,207,-72,-29,0.319571,0.190832,1.076721
16079455,4514,22136,12058,164,-55,-12,0.317189,0.190774,1.080888
16095081,4434,22174,12094,72,-40,-6,0.316117,0.190764,1.082562
16110707,4250,22018,12262,18,-31,-5,0.315832,0.190676,1.083698
16126334,4180,21846,12426,3,-38,1,0.316203,0.190444,1.083682
16141960,4118,21598,12508,-23,-43,-7,0.317483,0.190199,1.083191
16157585,4092,21526,12686,-35,-49,-13,0.318457,0.190123,1.082480
16173211,4094,21436,12574,-29,-69,-20,0.321169,0.189647,1.080977
16188838,4044,21472,12414,-9,-97,-33,0.325064,0.189167,1.079597
16204465,4022,21436,12496,13,-110,-26,0.325064,0.189167,1.079597
16220091,3992,21462,12540,3,-134,-26,0.326163,0.189111,1.079530
16235718,3860,21480,12762,-1,-171,-33,0.328620,0.189299,1.079286
16251345,3884,21660,12952,-7,-223,-43,0.332044,0.189650,1.078882
16266971,4044,21702,12984,-61,-277,-55,0.334288,0.189884,1.078561
16282597,4048,21526,12968,-95,-318,-53,0.340151,0.190912,1.077244
16298222,4002,21230,12996,-103,-373,-58,0.343721,0.191676,1.076217
16313848,4034,21068,13122,-83,-446,-74,0.351443,0.193532,1.074317
16329474,4404,21166,12702,-66,-500,-76,0.359768,0.196056,1.073057
16345101,4778,21270,12448,-69,-519,-90,0.363960,0.197615,1.072759
16360727,4936,21274,12400,-33,-522,-74,0.371976,0.201096,1.072892
16376353,5132,21260,12246,-20,-514,-73,0.375531,0.202966,1.073262
16391979,5412,21240,12074,-3,-506,-75,0.382464,0.206812,1.074398
16407606,5584,21114,12050,21,-473,-56,0.385547,0.208815,1.075212
16423232,5480,21114,12168,54,-459,-46,0.390575,0.212894,1.077236
16438858,5498,21344,12402,51,-457,-63,0.392834,0.214832,1.078472
16454484,5726,21610,12440,0,-452,-70,0.398093,0.218257,1.080633
16470111,5900,21420,12514,-26,-445,-67,0.404535,0.221591,1.081808
16485737,5772,21214,12774,-27,-446,-70,0.408138,0.223326,1.082079
16501363,5628,21110,12974,4,-475,-72,0.415779,0.226650,1.082506
16516988,5802,21074,12986,17,-513,-74,0.419622,0.228393,1.082901
16532614,6008,21116,12988,30,-537,-75,0.427815,0.232047,1.084252
16548240,6098,21164,12978,52,-565,-72,0.435752,0.236315,1.086242
16563867,6148,21392,13118,28,-603,-77,0.439861,0.238539,1.087413
16579499,6310,21608,13136,-38,-664,-84,0.450613,0.243186,1.088917
16595124,6536,21558,12968,-118,-692,-104,0.457086,0.245693,1.089209
16610751,6660,21392,12978,-172,-718,-117,0.472752,0.250724,1.088609
16626376,6868,21072,13038,-167,-753,-109,0.481784,0.253243,1.087889
16642002,7068,20996,12912,-165,-777,-114,0.500217,0.259096,1.086803
16657629,7346,20942,12740,-155,-795,-122,0.510006,0.261991,1.086314
16673256,7538,20900,12730,-134,-809,-122,0.529792,0.268307,1.085982
16688883,7738,20802,12726,-111,-816,-118,0.539909,0.271476,1.086176
16704509,8036,20892,12584,-91,-831,-107,0.560134,0.278269,1.086936
16720135,8264,20986,12570,-86,-831,-106,0.580628,0.285283,1.088500
16735762,8450,20940,12664,-77,-833,-105,0.591075,0.288853,1.089372
16751388,8652,21030,12714,-99,-847,-108,0.613079,0.296074,1.091105
16767014,8868,21014,12634,-138,-856,-101,0.624844,0.299748,1.091795
16782639,9022,20920,12568,-153,-860,-100,0.650229,0.307376,1.092699
16798265,9272,20770,12596,-165,-867,-102,0.663591,0.311228,1.093131
16813891,9482,20682,12576,-169,-875,-108,0.691978,0.319017,1.093630
16829516,9746,20634,12444,-163,-886,-112,0.707072,0.322892,1.093893
16845141,10050,20526,12558,-149,-899,-100,0.737971,0.330951,1.094917
16860767,10208,20496,12570,-154,-905,-98,0.770008,0.339317,1.096271
16876394,10400,20500,12482,-141,-926,-91,0.786769,0.343603,1.096906
16892020,10642,20468,12358,-129,-939,-102,0.821465,0.352350,1.098928
16907647,10894,20426,12264,-124,-960,-114,0.858457,0.361099,1.101613
16923273,11074,20244,12306,-84,-961,-94,0.877793,0.365550,1.103155
16938899,10994,20744,12502,-111,-960,-105,0.896470,0.370168,1.105079
16954525,11570,21010,12382,-102,-1022,-62,0.937417,0.379065,1.108443
16970151,12040,20902,12192,-222,-1044,-38,0.981236,0.389768,1.112145
16985778,11924,20590,12154,-284,-1030,-87,1.005501,0.395166,1.112898
17001405,12026,20366,12046,-291,-1062,-95,1.057010,0.404899,1.113656
17017032,12556,19860,11746,-262,-1087,-72,1.083755,0.409891,1.114302
17032659,12976,19486,11640,-196,-1078,-87,1.138065,0.420587,1.116535
17048286,13324,19418,11656,-127,-1075,-90,1.164742,0.425972,1.118380
17063913,13522,19524,11602,-76,-1088,-73,1.217865,0.436902,1.123618
17079540,13768,19720,11342,-54,-1083,-68,1.244318,0.442471,1.126847
17095167,14086,19770,10998,-45,-1078,-74,1.297850,0.453447,1.134082
17110793,14364,19780,10910,-53,-1065,-93,1.352476,0.464033,1.141931
17126419,14594,19800,11054,-48,-1063,-102,1.379799,0.469035,1.145773
17142046,14904,19814,10982,-59,-1066,-109,1.435067,0.478863,1.153824
17157672,15016,19772,10868,-78,-1067,-116,1.462705,0.483672,1.157712
17173299,15206,19648,10768,-76,-1075,-124,1.518067,0.493114,1.165491
17188925,15384,19512,10804,-47,-1090,-133,1.545913,0.497637,1.169522
17204551,15650,19564,10518,-17,-1110,-140,1.601427,0.506729,1.178561
17220178,16046,19804,10224,-21,-1120,-148,1.629206,0.511241,1.183445
17235805,16202,19812,10314,-3,-1134,-155,1.684953,0.520024,1.193871
17251430,16248,19594,10180,41,-1149,-165,1.740219,0.528480,1.205099
17267056,16432,19518,9998,108,-1172,-161,1.767815,0.532691,1.211337
17282682,16890,19478,9802,199,-1201,-145,1.823232,0.541019,1.225775
17298308,17452,19838,9352,255,-1214,-140,1.851390,0.545446,1.234105
17313934,17724,20418,9220,250,-1206,-129,1.907520,0.554177,1.252240
17329559,17608,20742,9136,206,-1198,-113,1.934634,0.558437,1.261404
17345185,17718,20826,8870,111,-1200,-132,1.986345,0.566408,1.278387
17360811,18138,20644,8422,5,-1195,-166,2.033699,0.573346,1.293124
17376437,18528,20356,8274,-7,-1188,-176,2.055906,0.576601,1.299957
17392064,18898,20314,8010,-21,-1186,-191,2.097761,0.582878,1.313322
17407691,19256,20424,7750,-36,-1169,-196,2.117372,0.585793,1.319951
17423318,19288,20636,7698,-45,-1139,-188,2.154082,0.591647,1.332960
17438945,19280,20578,7468,-67,-1121,-187,2.170788,0.594331,1.339245
17454572,19426,20444,7216,-66,-1112,-198,2.201662,0.599225,1.351106
17470198,19742,20252,7054,-15,-1107,-200,2.216165,0.601585,1.357139
17485824,20328,20468,6782,38,-1110,-183,2.244785,0.606164,1.370415
17501450,20554,20858,6534,34,-1086,-175,2.272179,0.611050,1.384704
17517076,20510,21060,6430,0,-1054,-172,2.284584,0.613396,1.391680
17532702,20408,20912,6134,-39,-1029,-170,2.307182,0.617592,1.404524
17548329,20622,20576,5824,-61,-1023,-186,2.317144,0.619623,1.410382
17563956,20888,20434,5844,-10,-1018,-190,2.336310,0.623139,1.422058
17579582,21180,20780,5822,33,-1026,-179,2.345626,0.624933,1.428412
17595208,21384,21184,5622,-1,-1032,-173,2.363987,0.628558,1.441611
17610834,21396,21292,5294,-98,-1015,-184,2.379774,0.631771,1.453456
17626461,21304,20920,5042,-103,-1008,-184,2.386986,0.633096,1.458854
17642087,21488,20592,4692,-41,-1005,-181,2.400295,0.635797,1.469602
17657713,21574,20624,4634,62,-993,-148,2.407396,0.637240,1.475826
17673339,21928,21212,4642,91,-1039,-124,2.421439,0.640630,1.489960
17688964,22464,21756,3926,24,-1070,-114,2.428355,0.642527,1.497495
17704591,22488,21862,3800,-61,-1008,-132,2.440599,0.646058,1.511489
17720218,22054,21650,3720,-104,-985,-142,2.445859,0.647440,1.517523
17735844,22054,21196,3378,-131,-997,-138,2.454525,0.649744,1.527947
17751470,22468,21092,3044,-133,-1013,-159,2.462701,0.651850,1.538455
17767097,22994,21320,2736,-125,-1029,-135,2.466656,0.652880,1.543896
17782723,23374,21608,2368,-173,-996,-104,2.473597,0.655619,1.555059
17798349,23224,21422,2092,-238,-930,-108,2.475984,0.657207,1.559891
17813975,22872,21076,1936,-248,-885,-113,2.479191,0.660033,1.567661
17829600,22964,20652,1506,-200,-880,-110,2.480519,2.480312,1.571116
17845227,23322,20592,1322,-124,-865,-93,2.483741,2.477567,1.579728
17860853,23736,20932,1134,-77,-850,-72,2.485466,2.476017,1.584821
17876479,23846,21214,958,-80,-785,-51,2.488383,2.472364,1.595334
17892105,23716,21286,932,-119,-752,-53,2.490010,2.468686,1.604697
17907732,23572,21066,712,-148,-737,-64,2.490546,2.467017,1.608794
17923359,23476,20782,512,-137,-714,-72,2.491110,2.464037,1.616107
17938985,23584,20806,474,-114,-707,-79,2.491541,2.462684,1.619887
17954612,23804,20946,472,-94,-699,-78,2.492530,2.460126,1.627679
17970238,24080,21064,394,-108,-707,-79,2.493260,2.457649,1.635491
17985864,23934,21106,238,-150,-678,-86,2.493392,2.456432,1.639075
18001498,23566,20842,196,-171,-666,-107,2.493335,2.455338,1.642198
18017125,23578,20586,-18,-128,-684,-119,2.493474,2.453787,1.647883
18032752,23816,20632,-190,-57,-703,-117,2.494737,2.452601,1.655341
18048379,24272,20900,-592,6,-715,-109,2.495662,2.451993,1.659848
18064005,24318,21298,-692,29,-675,-101,2.497852,2.450504,1.670547
18079631,23940,21418,-700,3,-644,-111,2.498861,2.449841,1.675751
18095256,23698,21446,-814,-33,-650,-121,2.500840,2.449151,1.684711
18110883,23780,21344,-914,-47,-672,-118,2.501785,2.449058,1.688945
18126510,24238,21478,-1366,-74,-700,-121,2.503581,2.448834,1.697452
18142136,24440,21570,-1806,-80,-655,-105,2.504784,2.448474,1.705804
18157761,24370,21630,-2034,-82,-612,-113,2.505141,2.448154,1.709725
18173386,24240,21702,-2168,-73,-576,-97,2.505739,2.447640,1.717040
18189012,24164,21582,-2138,-64,-559,-72,2.505938,2.447316,1.720557
18204638,24370,21440,-2400,-72,-546,-63,2.505374,2.446028,1.727303
18220264,24504,21566,-2576,-78,-521,-54,2.504967,2.445285,1.730527
18235890,24628,21694,-2638,-81,-508,-36,2.503613,2.443508,1.736675
18251517,24576,21556,-2774,-82,-456,-34,2.502678,2.442454,1.739498
18267144,24318,21384,-2798,-50,-398,-36,2.500556,2.440209,1.744548
18282770,24386,21226,-2952,-13,-381,-27,2.498449,2.437913,1.749277
18298396,24582,21238,-3068,25,-362,-16,2.497423,2.436720,1.751944
18314023,24798,21520,-3100,29,-334,-19,2.495186,2.433832,1.757764
18329649,24884,21704,-3366,-9,-301,-25,0.411912,0.118011,1.278369
18345274,24676,21630,-3400,-26,-228,-17,2.491526,2.429823,1.764180
18360900,24432,21366,-3188,-24,-180,-23,2.489919,2.428345,1.765264
18376526,24462,21178,-3296,-14,-181,-30,2.486732,2.425431,1.766760
18392152,24748,21152,-3522,21,-138,-25,2.483809,2.422590,1.768672
18407778,24862,21280,-3532,62,-95,-13,2.482308,2.421044,1.769672
18423405,24740,21612,-3440,81,-43,-6,2.479041,2.417468,1.771660
18439031,24510,21670,-3260,57,-7,-6,2.477307,2.415575,1.772291
18454657,24366,21706,-3098,19,13,-13,2.473788,2.412137,1.771992
18470283,24262,21522,-3018,11,17,-22,2.472011,2.410567,1.771187
18485909,24402,21378,-2906,-3,7,-37,2.468484,2.407620,1.769271
18501536,24464,21392,-2838,-18,11,-56,2.466873,2.406278,1.768243
18517162,24422,21502,-2858,-7,26,-44,2.463719,2.403900,1.765655
18532788,24342,21500,-2692,10,33,-33,2.460474,2.401348,1.763049
18548414,24278,21562,-2564,21,23,-26,2.458871,2.399963,1.762030
18564040,24266,21552,-2520,48,20,-7,2.455625,2.397212,1.760001
18579666,24282,21490,-2558,65,17,-15,2.452410,2.394237,1.758773
18595292,24308,21614,-2522,55,1,-26,2.451156,2.393072,1.758274
18610919,24278,21712,-2600,46,-3,-13,2.449925,2.391912,1.757862
18626545,24276,21822,-2500,32,-2,-13,2.447115,2.389378,1.756818
18642172,24264,21794,-2416,5,-9,-28,2.445838,2.388287,1.756161
18657798,24236,21614,-2474,-6,-9,-20,2.443269,2.386312,1.754242
18673423,24288,21434,-2476,9,-21,-17,2.440554,2.384120,1.752381
18689050,24366,21492,-2508,18,-31,-21,2.439161,2.383000,1.751724
18704676,24332,21546,-2452,31,-36,-10,2.436687,2.380833,1.750984
18720302,24304,21682,-2474,32,-42,-7,2.435358,2.379649,1.750655
18735929,24292,21654,-2522,30,-39,2,2.433153,2.377623,1.750250
18751556,24254,21610,-2490,39,-33,7,2.431934,2.376542,1.750086
18767182,24258,21526,-2490,57,-38,4,2.429366,2.374089,1.749974
18782808,24402,21588,-2580,51,-46,1,-3.141412,-0.000330,-0.000000
18798434,24358,21648,-2572,29,-41,0,2.426095,2.370809,1.750416
18814060,24302,21712,-2548,13,-31,2,2.423882,2.368783,1.750008
18829686,24262,21682,-2572,-5,-31,-2,2.422716,2.367848,1.749570
18845312,24258,21588,-2584,-2,-26,7,2.420342,2.365972,1.748271
18860938,24320,21484,-2496,11,-26,11,2.419102,2.364889,1.747774
18876565,24364,21424,-2606,22,-36,5,2.416609,2.362747,1.746888
18892191,24384,21518,-2662,38,-31,7,2.415383,2.361667,1.746720
18907817,24404,21684,-2528,29,-21,13,2.413202,2.359574,1.746545
18923444,24288,21672,-2494,8,-18,9,2.410925,2.357566,1.745810
18939070,24264,21526,-2494,-13,-19,0,2.409837,2.356683,1.745129
18954697,24244,21442,-2400,-13,-23,4,2.407610,2.355031,1.743505
18970322,24328,21274,-2504,12,-33,3,2.406451,2.354074,1.742950
18985948,24418,21310,-2502,15,-35,-12,2.404342,2.352315,1.742104
19001575,24380,21512,-2494,25,-33,-3,2.403516,2.351595,1.741877
19017201,24350,21580,-2424,15,-28,3,2.401680,2.349952,1.741506
19032827,24232,21534,-2308,-4,-30,-8,2.400827,2.349252,1.741055
19048454,24236,21490,-2362,-13,-47,-25,2.399142,2.348044,1.739762
19064081,24304,21338,-2374,11,-51,-20,2.397781,2.347142,1.738655
19079708,24408,21340,-2358,19,-54,-25,2.396552,2.346109,1.738223
19095335,24410,21566,-2438,37,-50,-19,2.396048,2.345672,1.738310
19110961,24304,21680,-2328,34,-43,-5,2.395596,2.345167,1.738399
19126587,24224,21636,-2332,14,-45,-17,2.394391,2.344090,1.738320
19142214,24206,21596,-2294,9,-58,-23,2.393834,2.343695,1.737957
19157841,24298,21488,-2440,10,-66,-22,2.393027,2.343046,1.737681
19173467,24420,21604,-2464,32,-49,-12,2.392189,2.342254,1.737779
19189093,24292,21638,-2380,34,-40,-4,2.391558,2.341738,1.737802
19204718,24284,21716,-2346,21,-47,0,2.390501,2.340669,1.737693
19220344,24238,21766,-2340,11,-51,2,2.389873,2.340176,1.737589
19235970,24194,21666,-2316,-5,-62,-8,2.388730,2.339267,1.737108
19251596,24290,21618,-2378,-19,-67,-11,2.388289,2.338998,1.736792
19267222,24332,21444,-2380,10,-57,8,2.387043,2.338079,1.736202
19282849,24322,21456,-2354,23,-64,6,2.386317,2.337508,1.736133
19298475,24350,21710,-2364,10,-75,5,2.385110,2.336312,1.736403
19314102,24310,21718,-2380,5,-66,15,2.383941,2.335331,1.736495
19329728,24322,21548,-2452,-10,-66,0,2.383257,2.334738,1.736415
19345355,24294,21388,-2468,-14,-64,-11,2.382096,2.333920,1.735905
19360982,24334,21320,-2484,1,-62,-7,2.381597,2.333529,1.735740
19376609,24384,21286,-2478,21,-63,-10,2.380749,2.332782,1.735830
19392236,24448,21270,-2552,51,-61,-6,2.380272,2.332348,1.736021
19407862,24490,21342,-2588,74,-50,-3,2.379553,2.331380,1.737068
19423497,24366,21654,-2478,53,-30,-2,2.379049,2.330734,1.737780
19439123,24282,21630,-2498,29,-19,-3,2.378416,2.329959,1.738103
19454748,24212,21540,-2324,8,-25,-26,2.377503,2.329255,1.737446
19470375,24320,21458,-2418,7,-37,-28,2.377228,2.329139,1.736960
19486002,24428,21480,-2390,1,-40,-24,2.376748,2.328864,1.736205
19501629,24382,21550,-2452,9,-31,-20,2.376376,2.328670,1.735754
19517256,24264,21560,-2366,33,-21,-13,2.375720,2.328147,1.735098
19532882,24234,21600,-2216,38,-25,-8,2.375353,2.327885,1.734789
19548509,24240,21692,-2298,40,-30,-2,2.374688,2.327318,1.734386
19564135,24302,21628,-2296,34,-38,-8,2.374090,2.326708,1.734200
19579762,24296,21670,-2202,27,-43,-2,2.373642,2.326394,1.734140
19595388,24364,21646,-2350,18,-43,4,2.372913,2.325773,1.733745
19611015,24288,21606,-2314,12,-41,3,2.372394,2.325334,1.733494
19626642,24220,21570,-2304,10,-41,1,2.371529,2.324680,1.733019
19642267,24226,21520,-2328,3,-42,1,2.371099,2.324364,1.732718
19657893,24264,21466,-2288,8,-45,4,2.370238,2.323733,1.732116
19673519,24336,21420,-2312,14,-50,4,2.369794,2.323442,1.731928
19689146,24318,21504,-2306,14,-46,-5,2.368773,2.322587,1.731640
19704773,24354,21566,-2276,19,-40,-5,2.368060,2.321992,1.731460
19720399,24266,21446,-2328,17,-42,-11,2.367727,2.321754,1.731123
19736026,24264,21376,-2384,21,-44,-12,2.367297,2.321438,1.730821
19751652,24382,21414,-2456,36,-42,-6,2.366976,2.321204,1.730827
19767277,24448,21524,-2442,33,-31,-8,2.366545,2.320678,1.731150
19782903,24338,21612,-2358,23,-18,-2,2.366207,2.320417,1.730940
19798530,24244,21546,-2274,16,-12,-7,2.365528,2.319847,1.730187
19814156,24212,21548,-2204,14,-24,-14,2.365135,2.319607,1.729644
19829782,24264,21486,-2192,13,-31,-8,2.364595,2.319331,1.728676
19845409,24324,21550,-2234,26,-34,-4,2.364012,2.318957,1.728077
19861035,24350,21608,-2278,36,-33,-5,2.363674,2.318697,1.727865
19876662,24278,21626,-2150,25,-28,-2,2.363246,2.318314,1.727702
19892288,24158,21578,-2036,12,-27,0,2.362921,2.318030,1.727376
19907913,24184,21536,-2108,11,-39,-2,2.362186,2.317599,1.726478
19923539,24232,21472,-2120,18,-48,-3,2.361840,2.317385,1.726253
19939164,24316,21492,-2196,25,-52,-3,2.361440,2.317070,1.726053
19954790,24324,21590,-2148,27,-44,-4,2.361073,2.316688,1.726096
19970417,24190,21620,-2076,8,-51,-3,2.360879,2.316532,1.726168
19986043,24164,21544,-2124,-11,-59,-8,2.360379,2.316329,1.725506
20001670,24214,21504,-2084,-12,-71,-10,2.360293,2.316294,1.725288
20017296,24246,21470,-2188,-14,-81,-12,2.359876,2.316138,1.724923
20032922,24362,21404,-2252,-5,-79,-15,2.359770,2.316174,1.724808
20048548,24330,21460,-2180,10,-79,-8,2.359664,2.316087,1.725051
20064175,24270,21474,-2178,20,-78,-4,2.359493,2.315978,1.725215
20079802,24236,21534,-2198,14,-81,-12,2.359181,2.315694,1.725786
20095427,24318,21596,-2284,23,-83,-9,2.359182,2.315691,1.726339
20111052,24380,21578,-2338,22,-72,-13,2.359296,2.315673,1.726880
20126678,24354,21484,-2304,17,-66,-14,2.359401,2.315702,1.727409
20142305,24352,21520,-2388,16,-64,-8,2.359198,2.315593,1.727470
20157932,24364,21568,-2344,20,-55,-4,2.359093,2.315441,1.727855
20173557,24328,21592,-2292,22,-52,-2,2.358898,2.315285,1.727929
20189184,24274,21562,-2324,21,-48,2,2.358509,2.314975,1.728077
20204810,24356,21578,-2274,25,-41,12,2.358045,2.314515,1.728161
20220436,24350,21530,-2242,24,-34,7,2.357641,2.314178,1.728091
20236062,24290,21498,-2352,15,-33,-1,2.356996,2.313659,1.727773
20251687,24280,21556,-2324,11,-30,3,2.356800,2.313452,1.727514
20267313,24298,21484,-2306,11,-32,0,2.356220,2.313076,1.726914
20282940,24340,21482,-2318,10,-35,-7,2.355875,2.312862,1.726691
20298566,24398,21504,-2442,14,-23,0,2.355519,2.312643,1.726121
20314192,24368,21422,-2382,27,-11,5,2.355047,2.312351,1.725830
20329818,24282,21486,-2288,19,-7,-4,2.354491,2.311837,1.725266
20345444,24432,21484,-2332,20,-2,2,2.353835,2.311434,1.724237
20361071,24434,21460,-2316,22,11,4,2.353481,2.311148,1.723804
20376697,24476,21554,-2366,18,29,1,2.352578,2.310544,1.722650
20392323,24500,21508,-2478,23,59,5,2.352176,2.310233,1.721892
20407950,24484,21510,-2532,35,91,8,2.351030,2.309476,1.719796
20423576,24434,21494,-2522,51,118,11,2.350360,2.308940,1.718689
20439203,24502,21518,-2464,58,149,15,2.348985,2.307952,1.716012
20454829,24520,21598,-2388,59,180,19,2.347181,2.306646,1.712685
20470456,24414,21634,-2266,49,215,18,2.346175,2.306022,1.710397
20486083,24460,21656,-2336,47,245,27,2.343993,2.304691,1.705514
20501709,24402,21624,-2190,42,288,35,2.342794,2.303963,1.702694
20517336,24396,21574,-2082,33,317,43,2.339505,2.302104,1.695914
20532963,24412,21546,-1978,40,350,55,2.337766,2.301210,1.692057
20548589,24376,21392,-1788,61,386,65,2.333813,2.298978,1.684013
20564215,24342,21320,-1682,84,416,64,2.331649,2.297728,1.679676
20579842,24430,21474,-1674,77,440,72,2.327154,2.295276,1.670861
20595468,24384,21526,-1462,78,501,84,2.322199,2.292698,1.661008
20611094,24308,21572,-1268,80,545,71,2.319458,2.291365,1.655394
20626720,24182,21492,-1146,75,579,71,2.313930,2.289153,1.643335
20642345,24020,21320,-840,66,609,74,2.310909,2.288110,1.636722
20657972,23932,21218,-690,38,616,65,2.304663,2.286146,1.622710
20673599,24098,21328,-640,18,627,72,2.301299,2.285203,1.615230
20689226,24228,21370,-528,21,666,99,2.294228,2.283421,1.599760
20704853,23992,21308,-118,14,708,113,2.285947,2.281232,1.583194
20720479,23670,21162,208,6,722,110,2.281608,2.280257,1.574397
20736106,23620,21034,442,11,741,113,2.272605,0.863030,1.556255
20751732,23620,21026,804,23,803,102,2.268065,0.863714,1.546996
20767358,23502,21064,1264,31,826,88,2.258207,0.864701,1.527045
20782985,23418,21180,1394,8,807,96,2.253256,0.864840,1.516791
20798611,23318,20982,1812,-4,791,141,2.243191,0.864985,1.496610
20814237,22970,20532,2082,56,757,163,2.237496,0.865504,1.486596
20829863,22750,20480,2286,119,694,134,2.226828,0.866629,1.468747
20845489,22808,20766,2352,168,625,128,2.222538,0.866661,1.461424
20861115,23022,21088,2600,165,577,136,2.214844,0.866880,1.449290
20876742,23072,21230,2588,107,577,128,2.207498,0.866904,1.437930
20892369,22812,21196,2636,49,592,123,2.203777,0.866721,1.431669
20907995,22720,20980,2830,11,586,102,2.195617,0.866068,1.418172
20923621,22746,20682,2846,8,585,86,2.191554,0.865422,1.411124
20939248,22902,20478,2798,16,615,81,2.183517,0.863987,1.397269
20954874,22840,20530,2958,45,662,91,2.174769,0.862540,1.383161
20970500,22864,20694,3204,54,682,111,2.169970,0.861801,1.375755
20986126,22558,20868,3368,59,720,129,2.159887,0.860455,1.361020
21001752,22260,20818,3702,58,751,119,2.154653,0.859528,1.353425
21017379,22146,20638,3896,61,766,125,2.143706,0.857139,1.337374
21033006,21954,20420,4088,82,790,131,2.137936,0.855841,1.329268
21048633,22000,20500,4298,92,795,126,2.125817,0.853166,1.312978
21064260,22094,20716,4502,86,796,126,2.119910,0.851620,1.305154
21079887,21926,20816,4800,64,818,132,2.107212,0.848421,1.289072
21095513,21600,20680,5140,65,874,145,2.100636,0.846532,1.280600
21111139,20984,20376,5532,102,895,148,2.085681,0.842544,1.262520
21126765,20710,20186,5890,119,853,139,2.070537,0.838053,1.245197
21142391,20948,20232,6066,118,776,123,2.063357,0.835663,1.237211
21158017,21164,20518,6188,126,739,117,2.050040,0.831152,1.223149
21173644,20830,20646,6466,140,741,141,2.043836,0.828881,1.216882
21189271,20284,20578,6730,169,721,167,2.030719,0.824655,1.204606
21204897,19936,20454,6962,189,681,147,2.017906,0.820388,1.193685
21220523,19920,20504,7012,167,613,102,2.012249,0.818005,1.188940
21236148,20270,20618,7040,132,575,95,2.007206,0.815543,1.184599
21251774,20422,20730,7162,88,577,92,1.997385,0.810927,1.176509
21267400,20098,20710,7166,26,578,84,1.986732,0.806296,1.167428
21283026,19774,20406,7224,17,574,84,1.981279,0.803774,1.162405
21298652,19766,20206,7212,42,562,87,1.970429,0.798908,1.152887
21314278,19772,20086,7398,92,556,85,1.964875,0.796603,1.148506
21329903,19792,20248,7290,117,553,77,1.954367,0.791966,1.140954
21345529,19826,20376,7276,111,572,84,1.949290,0.789598,1.137653
21361156,19662,20400,7436,103,598,89,1.938540,0.784873,1.130728
21376782,19424,20408,7554,85,625,83,1.926642,0.779657,1.123034
21392408,19304,20342,7590,78,651,84,1.920183,0.776812,1.118905
21408034,19286,20442,7626,63,679,75,1.906645,0.771055,1.110251
21423660,19356,20544,7718,41,726,60,1.899572,0.767888,1.105801
21439286,19022,20822,7822,-20,771,59,1.884214,0.760719,1.095707
21454913,18908,20636,7986,-64,815,71,1.866724,0.752918,1.083550
21470539,18458,20184,8572,-50,870,68,1.856711,0.748733,1.076704
21486165,18018,19820,8956,-58,856,41,1.846608,0.744295,1.069843
21501791,17930,19828,9028,-61,809,32,1.826305,0.734985,1.056067
21517417,17806,20074,9108,1,807,75,1.806880,0.726094,1.043810
21533043,17656,20222,9156,45,832,101,1.796741,0.721864,1.038273
21548669,17192,20138,9442,82,836,92,1.776222,0.713501,1.028302
21564294,16920,20168,9832,77,814,76,1.765699,0.709066,1.023645
21579921,16808,20242,10220,58,791,74,1.745477,0.699878,1.014927
21595547,16586,20302,10290,36,767,77,1.735269,0.695380,1.010380
21611172,16318,20366,10244,-13,739,73,1.714993,0.686449,1.001526
21626799,16106,20210,10406,3,711,74,1.705520,0.681980,0.997083
21642425,16092,20236,10616,15,683,65,1.686344,0.673509,0.988937
21658051,15806,20166,10696,17,668,75,1.668258,0.665297,0.981829
21673677,15560,20088,10804,32,651,89,1.659221,0.661268,0.978565
21689304,15422,19934,10930,59,623,85,1.641247,0.653615,0.972388
21704930,15306,19982,11136,93,583,87,1.624350,0.646441,0.967875
21720557,15280,20090,11080,100,555,85,1.616078,0.643074,0.965999
21736184,15128,20108,11212,102,532,79,1.608299,0.639785,0.964523
21751811,14954,20048,11324,112,503,73,1.593435,0.633373,0.961930
21767436,14846,20118,11456,68,458,40,1.579555,0.627132,0.959778
21783062,14608,20162,11446,43,434,30,1.573318,0.623883,0.958706
21798688,14438,20036,11176,7,412,27,1.561873,0.617717,0.956536
21814315,14488,19862,11122,11,401,27,1.556395,0.614754,0.955254
21829941,14550,19668,11066,66,398,19,1.545863,0.609133,0.953427
21845567,14538,19780,11182,114,403,8,1.540622,0.606348,0.953225
21861193,14570,19960,11186,153,414,17,1.530018,0.600795,0.953510
21876818,14382,19990,11114,195,430,28,1.524272,0.598021,0.954100
21892445,14304,20182,10790,221,455,23,1.512105,0.592342,0.955875
21908071,14250,20254,10742,240,492,21,1.498809,0.586434,0.958237
21923698,14234,20356,10856,259,528,32,1.491613,0.583239,0.959507
21939324,14108,20492,11042,273,575,41,1.475255,0.576639,0.961883
21954950,13816,20648,11148,275,614,51,1.465675,0.573102,0.962901
21970576,13680,20794,11010,243,650,53,1.445290,0.565652,0.964289
21986201,13494,20886,11042,209,698,48,1.434326,0.561651,0.964466
22001828,13264,21004,11256,198,735,49,1.410826,0.553061,0.964105
22017455,12904,20982,11566,179,778,68,1.398291,0.548467,0.963578
22033081,12656,20858,11694,163,796,75,1.371340,0.539074,0.961671
22048707,12396,20796,11684,159,823,66,1.342893,0.529459,0.958950
22064334,12184,20886,11780,154,850,72,1.328498,0.524333,0.957549
22079960,11872,20900,11974,148,871,78,1.298072,0.513876,0.954459
22095586,11484,21046,12216,122,873,74,1.282781,0.508594,0.952829
22111213,11036,21008,12316,73,860,73,1.252369,0.497572,0.948831
22126840,10636,20804,12452,62,840,80,1.237370,0.492035,0.946490
22142466,10288,20560,12770,83,809,73,1.208704,0.481131,0.942076
22158093,9972,20700,12852,138,758,73,1.181259,0.470473,0.938807
22173719,9800,20898,12828,151,714,88,1.168164,0.465504,0.937810
22189346,9742,20982,12694,156,679,79,1.142764,0.456039,0.936553
22204972,9516,21220,12672,148,653,77,1.118700,0.447047,0.936241
22220598,9366,21458,12790,142,624,94,1.107185,0.442772,0.936141
22236225,9328,21530,12770,160,615,108,1.096035,0.438634,0.936129
22251852,9246,21456,12640,167,598,123,1.073144,0.430826,0.936655
22267479,9090,21486,12632,123,586,115,1.061674,0.427305,0.937016
22283105,8846,21516,12632,79,572,114,1.040496,0.420054,0.937008
22298732,8824,21568,12610,51,560,131,1.020608,0.413034,0.936295
22314359,8736,21524,12556,-1,560,128,1.010972,0.409718,0.935754
22329985,8642,21394,12574,-38,570,116,0.992926,0.403100,0.933482
22345611,8408,21132,12598,-34,584,129,0.984110,0.399580,0.932015
22361238,8270,20722,12766,40,584,147,0.965657,0.392962,0.929418
22376864,8108,20490,12742,73,565,139,0.956014,0.389737,0.928585
22392499,7988,20824,12744,102,552,139,0.936780,0.383359,0.927848
22408124,7890,21230,12406,150,559,173,0.917366,0.377477,0.928200
22423751,7676,21202,12366,128,583,166,0.906652,0.374612,0.928815
22439378,7186,20938,12556,101,589,121,0.886223,0.368180,0.929724
22455004,6648,21024,12688,22,582,58,0.876996,0.364524,0.929684
22470631,6666,20988,12588,-1,534,60,0.861687,0.356091,0.928625
22486256,7064,20930,12446,13,522,71,0.854434,0.352222,0.928076
22501882,6954,21054,12626,43,551,60,0.840463,0.344870,0.927366
22517508,6576,21216,12842,128,558,107,0.832477,0.341111,0.927497
22533135,6110,21238,13090,178,528,108,0.815124,0.333970,0.929092
22548762,5876,21656,12924,177,470,82,0.798395,0.326914,0.931859
22564388,5958,21748,12978,156,440,88,0.790692,0.323499,0.933507
22580014,5792,21928,13046,120,422,81,0.776138,0.317357,0.936334
22595640,5490,21948,13066,99,390,99,0.769637,0.314264,0.937495
22611267,5254,21892,13164,67,346,88,0.757521,0.308679,0.939485
22626894,5156,21740,13202,-21,290,52,0.752734,0.306043,0.940075
22642521,5198,21568,13004,-81,240,52,0.746393,0.300810,0.939981
22658148,5212,21356,12992,-94,208,41,0.744113,0.298621,0.939429
22673774,5228,21046,12680,-82,171,28,0.740923,0.294621,0.938417
22689400,5222,20940,12626,-27,154,30,0.738218,0.291034,0.938025
22705025,5270,20922,12488,28,142,23,0.736334,0.289371,0.938590
22720651,5250,21108,12328,40,149,19,0.731817,0.286213,0.940664
22736277,5104,21256,12570,34,148,13,0.729626,0.284570,0.941771
22751904,5094,21420,12496,31,134,5,0.725242,0.281094,0.944213
22767530,5146,21510,12442,24,131,0,0.723319,0.279384,0.945365
22783156,5178,21380,12312,24,134,6,0.719677,0.276062,0.947627
22798783,5074,21222,12632,61,142,14,0.717704,0.274444,0.948846
22814409,5120,21272,12290,58,141,10,0.713130,0.271254,0.951518
22830035,5294,21442,11526,60,185,12,0.708289,0.268140,0.954154
22845662,5374,21278,11000,115,276,37,0.705090,0.266411,0.955857
22861287,5250,20972,11168,188,364,43,0.694867,0.262540,0.960292
22876913,4856,20740,11594,193,421,49,0.688521,0.260071,0.962773
22892539,4468,20692,12012,222,428,53,0.675113,0.254671,0.967190
22908166,4298,21256,12736,323,378,45,0.668102,0.251834,0.969643
22923792,4204,22058,13072,377,326,30,0.653752,0.246413,0.976457
22939418,3654,22654,13598,332,282,42,0.639859,0.241163,0.984278
22955044,3180,22802,13980,295,185,42,0.634071,0.238678,0.987628
22970671,2850,22882,14058,213,77,26,0.625168,0.234344,0.993665
22986297,2990,22736,13512,92,-45,-2,0.622971,0.232666,0.995853
23001924,3450,22640,12590,4,-134,-20,0.623019,0.230130,0.998764
23017551,4072,22444,11878,-36,-153,-19,0.624395,0.229675,0.999789
23033177,4270,22330,11662,-51,-130,-30,0.627515,0.229107,1.001646
23048804,4362,22328,11348,-61,-97,-19,0.628868,0.228889,1.002429
23064431,4400,22186,11316,-94,-48,-6,0.631110,0.228191,1.003801
23080057,4472,21954,11566,-150,-12,-18,0.633072,0.227284,1.004108
23095683,4474,21880,11696,-182,13,-21,0.634513,0.226558,1.003494
23111309,4404,21648,11918,-166,40,-15,0.637642,0.224783,1.001625
23126934,4080,21318,12456,-126,59,-16,0.638812,0.223851,1.000692
23142561,3632,21100,12848,-56,37,-18,0.640589,0.221632,0.999094
23158187,3532,21130,12804,18,-15,-16,0.641246,0.220383,0.998946
23173814,3798,21210,12416,62,-54,-23,0.641600,0.218521,1.000238
23189440,4010,21334,12268,145,-74,-28,0.641167,0.217387,1.003543
23205067,4304,21718,11836,165,-65,-36,0.640438,0.216874,1.005837
23220693,4292,22010,12002,213,-40,-12,0.637689,0.215910,1.011266
23236319,3926,22514,12674,247,-34,4,0.635202,0.215481,1.014491
23251945,3580,23394,12582,159,-67,1,0.630609,0.214475,1.020750
23267570,3774,23280,12056,-47,-97,-18,0.629736,0.213880,1.022922
23283196,4048,22502,11936,-215,-99,-34,0.632953,0.212772,1.023352
23298822,4154,21912,12040,-219,-85,-23,0.636244,0.212259,1.021943
23314447,3880,21552,12358,-150,-61,-37,0.642390,0.211576,1.019096
23330074,3646,21446,12384,-141,-86,-22,0.647385,0.210503,1.017129
23345700,3864,21376,12148,-116,-110,-25,0.650028,0.209925,1.016297
23361326,4232,21424,11980,-72,-111,-29,0.654696,0.209457,1.015281
23376951,4314,21464,11946,-48,-84,-25,0.656426,0.209287,1.015405
23392577,4118,21338,12184,-29,-55,-18,0.658898,0.208892,1.015811
23408203,3910,21416,12390,17,-69,-17,0.659683,0.208499,1.016180
23423829,4056,21552,12280,53,-89,-11,0.660582,0.207882,1.017735
23439455,4194,21922,12198,47,-82,-20,0.660903,0.207749,1.018869
23455081,4204,21780,12166,-6,-70,-10,0.661387,0.207263,1.021050
23470708,4076,21624,12166,-16,-68,-1,0.662725,0.206860,1.022105
23486335,3988,21664,12224,5,-73,-11,0.663268,0.206697,1.022613
23501960,4106,21874,12078,3,-74,-9,0.664592,0.206211,1.023815
23517586,4186,21744,12162,-12,-61,-16,0.665059,0.206055,1.024531
23533212,4088,21420,12224,-20,-53,-24,0.666703,0.205326,1.025381
23548838,3962,21300,12310,0,-65,-16,0.667360,0.204949,1.025688
23564464,4124,21548,11936,15,-75,-17,0.669092,0.204365,1.026506
23580090,4172,21678,12148,23,-63,-15,0.670014,0.203965,1.028084
23595716,3956,21722,12368,27,-60,-8,0.670211,0.203803,1.028910
23611343,3952,21838,12350,16,-64,-4,0.670775,0.203177,1.030300
23626968,4110,21832,12226,-21,-75,-6,0.671451,0.202986,1.030864
23642594,4170,21614,12080,-45,-72,-10,0.673371,0.202617,1.031294
23658221,4172,21348,12054,-41,-63,-14,0.674415,0.202503,1.031390
23673848,4160,21286,12218,3,-69,-12,0.676688,0.202129,1.031500
23689473,4106,21630,12290,30,-74,-11,0.677235,0.201959,1.032005
23705100,4170,21930,12118,-8,-75,-7,0.678143,0.201833,1.033425
23720727,4140,21714,12224,-42,-60,-11,0.679724,0.201464,1.034172
23736353,4098,21538,12294,-49,-63,-4,0.681108,0.201263,1.034096
23751978,4092,21364,12164,-50,-66,-12,0.683423,0.200933,1.033809
23767604,4148,21328,12162,-21,-70,-8,0.684674,0.200754,1.033674
23783230,4260,21342,12166,7,-68,-6,0.686446,0.200607,1.034037
23798855,4196,21332,12182,24,-63,-8,0.686967,0.200637,1.034535
23814482,4178,21462,12194,42,-61,-6,0.687751,0.200408,1.035795
23830109,4140,21606,12178,32,-53,-2,0.687984,0.200172,1.037277
23845735,4110,21540,12236,28,-55,-4,0.688260,0.199994,1.037891
23861361,4158,21498,12292,21,-57,-9,0.688843,0.199753,1.039054
23876987,4168,21524,12262,30,-60,-6,0.689118,0.199573,1.039668
23892614,4106,21626,12118,47,-58,-4,0.689699,0.199331,1.040829
23908240,4150,21742,12164,38,-54,-6,0.689896,0.199155,1.041651
23923867,4106,21686,12212,9,-49,-8,0.690042,0.198847,1.043012
23939498,4056,21504,12276,-18,-50,-9,0.690734,0.198577,1.043245
23955124,4014,21332,12134,-8,-63,-8,0.692351,0.198094,1.043413
23970751,4232,21394,12108,40,-71,-5,0.693785,0.197938,1.044091
23986376,4234,21624,12228,69,-60,-5,0.694014,0.197876,1.044847
24002003,4104,21694,12232,39,-58,-4,0.693972,0.197774,1.046619
24017628,4194,21610,12184,3,-58,-11,0.694244,0.197590,1.047231
24033254,4148,21368,12152,21,-59,-4,0.695324,0.197364,1.047900
24048880,4194,21300,12028,38,-53,-9,0.695973,0.197213,1.048275
24064506,4156,21408,12234,83,-51,-4,0.696050,0.196982,1.049694
24080132,4080,21622,12266,122,-53,1,0.694368,0.196622,1.053554
24095759,4138,21942,12312,62,-62,-9,0.694368,0.196622,1.053554
24111386,4116,21966,12206,18,-66,-4,0.694428,0.196494,1.054397
24127012,4230,21754,12088,-16,-64,-5,0.695281,0.196238,1.055442
24142639,4180,21512,12140,-20,-54,-11,0.697395,0.196044,1.055442
24158265,4128,21474,12270,17,-54,-3,0.698271,0.195913,1.055437
24173890,4130,21622,12160,32,-56,-7,0.699293,0.195651,1.056067
24189517,4072,21710,12254,13,-60,-12,0.699643,0.195459,1.056469
24205143,4146,21538,12136,-16,-63,-11,0.701378,0.195178,1.056933
24220770,4222,21466,12134,6,-62,-10,0.703423,0.194920,1.056811
24236395,4212,21522,12168,39,-56,-8,0.703936,0.194788,1.057125
24252022,4060,21630,12186,41,-52,-11,0.704533,0.194607,1.058134
24267648,4094,21690,12172,26,-60,-10,0.705027,0.194390,1.058594
24283274,4060,21758,12244,10,-62,-10,0.706260,0.194128,1.059317
24298901,4194,21602,12120,7,-62,-8,0.706962,0.193852,1.059545
24314527,4186,21608,12174,-1,-58,-11,0.708730,0.193652,1.059861
24330153,4152,21530,12300,7,-59,-10,0.710295,0.193448,1.060081
24345779,4188,21476,12126,18,-57,-11,0.711099,0.193317,1.060282
24361405,4174,21544,12154,38,-51,-9,0.712071,0.193134,1.060970
24377032,4092,21576,12314,47,-53,-7,0.712570,0.192915,1.061429
24392658,4220,21690,12188,36,-53,-12,0.713173,0.192727,1.062436
24408285,4190,21612,12252,23,-50,-10,0.713691,0.192592,1.062749
24423912,4138,21524,12160,32,-52,-9,0.714605,0.192379,1.063398
24439538,4114,21626,12166,40,-54,-9,0.715105,0.192158,1.063856
24455165,4072,21642,12208,45,-54,-5,0.715791,0.191968,1.064655
24470792,4176,21666,12206,55,-53,-10,0.716104,0.191889,1.065200
24486419,4134,21696,12168,25,-56,-8,0.716604,0.191551,1.066230
24502046,4118,21628,12194,24,-53,-7,0.717748,0.191424,1.066829
24517673,4092,21728,12166,24,-57,-4,0.718268,0.191286,1.067141
24533300,4102,21622,12212,15,-60,-10,0.719646,0.191134,1.067591
24548925,4200,21608,12176,13,-58,-6,0.720251,0.190997,1.067695
24564551,4234,21644,12182,24,-55,-4,0.721775,0.190872,1.067974
24580178,4136,21704,12230,23,-49,-7,0.722716,0.190739,1.068477
24595804,4046,21688,12264,18,-55,-4,0.723409,0.190662,1.068702
24611430,4148,21588,12148,-3,-61,-9,0.724308,0.190528,1.068693
24627056,4176,21568,12140,30,-58,-4,0.726213,0.190407,1.068653
24642682,4252,21706,12080,44,-51,-4,0.727014,0.190357,1.069425
24658308,4098,21728,12256,36,-44,-6,0.727567,0.190250,1.069820
24673934,3964,21600,12268,15,-50,-8,0.728222,0.190112,1.070434
24689560,4084,21518,12150,2,-60,-6,0.729019,0.189832,1.070449
24705186,4174,21588,12046,41,-62,-3,0.730576,0.189790,1.070582
24720811,4214,21740,12154,60,-52,-7,0.731068,0.189768,1.071039
24736438,4084,21702,12258,38,-48,-8,0.731267,0.189620,1.072179
24752063,3968,21650,12212,24,-58,-4,0.732408,0.189341,1.072592
24767690,4088,21692,12072,36,-63,-3,0.733109,0.189262,1.072816
24783316,4186,21778,12104,39,-54,-5,0.733981,0.189122,1.073525
24798943,4078,21688,12326,25,-48,-4,0.734324,0.189123,1.073923
24814569,4090,21622,12340,22,-60,-1,0.735488,0.188930,1.074191
24830195,4116,21714,12180,34,-72,-3,0.736210,0.188937,1.074270
24845822,4236,21838,11988,25,-67,1,0.737665,0.189007,1.074757
24861448,4272,21814,12074,12,-44,-5,0.738120,0.189153,1.075132
24877074,3944,21676,12222,-8,-43,-6,0.739525,0.188936,1.075250
24892700,3962,21536,12244,-7,-58,-4,0.741579,0.188586,1.074753
24908325,4052,21514,12220,35,-70,-4,0.742666,0.188513,1.074657
24923951,4248,21632,12138,49,-67,1,0.743959,0.188520,1.075230
24939577,4236,21778,12136,35,-53,0,0.744419,0.188665,1.075605
24955203,4132,21774,12198,20,-49,-1,0.745202,0.188666,1.076194
24970830,4040,21700,12244,8,-51,0,0.746446,0.188678,1.076257
24986457,4002,21658,12200,16,-59,-1,0.747364,0.188542,1.076246
25002084,4092,21772,12134,37,-69,3,0.748159,0.188464,1.076262
25017711,4156,21822,12130,28,-63,-1,0.749339,0.188526,1.076861
25033337,4208,21846,12280,-4,-59,-4,0.750901,0.188596,1.077141
25048963,4240,21678,12160,-22,-60,-1,0.751839,0.188548,1.076986
25064589,4148,21522,12186,-9,-63,-2,0.754419,0.188701,1.076334
25080216,4196,21548,12166,18,-63,-6,0.755517,0.188628,1.076238
25095843,4186,21702,12076,25,-54,-5,0.757168,0.188702,1.076310
25111468,4064,21718,12208,20,-50,-4,0.757729,0.188645,1.076475
25127094,4040,21660,12244,10,-59,-9,0.759093,0.188511,1.076655
25142721,4100,21638,12164,10,-66,-8,0.760981,0.188271,1.076718
25158347,4238,21690,12112,22,-63,-7,0.762021,0.188281,1.076685
25173973,4186,21760,12162,37,-53,-8,0.763425,0.188288,1.077050
25189599,4050,21780,12302,25,-50,-6,0.763974,0.188143,1.077358
25205226,3976,21792,12212,-3,-59,-5,0.765408,0.187923,1.077474
25220852,4126,21712,12210,-10,-66,-3,0.767920,0.187781,1.077169
25236478,4240,21608,12096,-8,-65,-10,0.768978,0.187880,1.076992
25252104,4274,21518,12074,-9,-57,-10,0.770264,0.187870,1.076810
25267730,4088,21528,12314,26,-53,-5,0.772494,0.187812,1.076473
25283355,4076,21728,12236,40,-60,-6,0.773689,0.187818,1.076742
25298981,4130,21836,12226,27,-57,-7,0.774244,0.187672,1.077049
25314607,4138,21672,12118,4,-53,-5,0.775894,0.187567,1.077409
25330233,4136,21484,12210,2,-52,-8,0.776840,0.187520,1.077253
25345860,4116,21486,12210,33,-63,-7,0.778598,0.187395,1.077113
25361486,4154,21702,12176,52,-61,-6,0.779336,0.187311,1.077335
25377112,4186,21928,12068,54,-51,-4,0.780194,0.187356,1.078253
25392738,3986,21806,12276,8,-50,-8,1.682179,-0.969690,-0.677356
25408364,4024,21746,12204,-13,-63,-8,0.781903,0.186983,1.078786
25423990,4202,21580,12120,-6,-71,-8,0.784514,0.186847,1.078272
25439616,4308,21596,12038,9,-62,-9,0.785751,0.186921,1.078154
25455242,4198,21644,12244,24,-48,-9,0.787564,0.186936,1.078199
25470869,3966,21644,12304,26,-52,-5,0.788901,0.186772,1.078340
25486498,4076,21720,12224,24,-64,-6,0.789477,0.186714,1.078503
25502125,4162,21728,12140,19,-67,-7,0.790525,0.186635,1.078613
25517751,4240,21640,12058,4,-59,-6,0.792516,0.186622,1.078716
25533377,4138,21634,12146,8,-54,-6,0.794167,0.186664,1.078703
25549002,4058,21686,12276,28,-57,-4,0.795172,0.186648,1.078632
25564628,4124,21784,12244,25,-62,-8,0.796685,0.186567,1.078932
25580253,4146,21756,12184,2,-60,-8,0.797448,0.186571,1.079010
25595880,4102,21668,12144,-2,-56,-7,0.799702,0.186425,1.078815
25611506,4040,21482,12236,9,-58,-9,0.800829,0.186352,1.078717
25627133,4186,21576,12170,18,-64,-9,0.802967,0.186264,1.078548
25642758,4214,21754,12144,22,-62,-6,0.803851,0.186211,1.078599
25658384,4142,21748,12198,8,-52,-10,0.805499,0.186275,1.078879
25674011,4122,21656,12222,-11,-54,-10,0.807467,0.186214,1.078652
25689636,4178,21590,12158,8,-57,-9,0.808483,0.186085,1.078431
25705263,4100,21552,12180,21,-55,-12,0.810568,0.186080,1.078327
25720889,4098,21580,12264,29,-55,-8,0.811448,0.185937,1.078520
25736515,4068,21658,12206,14,-60,-11,0.812932,0.185919,1.078640
25752142,4186,21708,12070,7,-58,-10,0.813882,0.185783,1.078626
25767769,4120,21590,12264,25,-51,-12,0.815967,0.185687,1.078663
25783395,4016,21704,12282,22,-60,-7,0.817389,0.185548,1.078839
25799021,4104,21802,12156,21,-69,-9,0.818340,0.185412,1.078825
25814648,4206,21754,12162,0,-62,-10,0.820305,0.185391,1.079134
25830274,4202,21566,12236,-8,-55,-9,0.821264,0.185346,1.078978
25845900,4110,21464,12196,-4,-58,-8,0.823793,0.185274,1.078489
25861527,4188,21536,12080,21,-60,-6,0.825714,0.185296,1.078327
25877154,4148,21618,12184,30,-57,-8,0.826674,0.185273,1.078463
25892780,4030,21706,12302,21,-53,-5,0.827266,0.185213,1.078625
25908407,4040,21678,12238,13,-62,-5,0.829066,0.185110,1.078774
25924033,4192,21652,12196,16,-63,-8,0.830930,0.185124,1.078818
25939659,4204,21600,12212,10,-58,-7,0.831898,0.185191,1.078812
25955284,4172,21590,12084,11,-57,-7,0.834011,0.185187,1.078707
25970911,4116,21712,12166,31,-55,-5,0.834794,0.185190,1.078786
25986537,4092,21742,12246,18,-56,-6,0.836184,0.185245,1.079177
26002164,4092,21674,12374,0,-60,-5,0.837143,0.185109,1.079162
26017789,4206,21378,12424,25,-52,9,0.839325,0.185114,1.078850
26033416,4172,21024,12622,110,-51,46,0.839883,0.185322,1.078842
26049043,4174,21462,12316,164,-64,26,0.839012,0.186163,1.079949
26064669,4312,22102,12082,147,-58,20,0.837146,0.186839,1.082664
26080294,3994,22250,12292,107,-57,36,0.836296,0.187116,1.084121
26095920,3744,22360,12598,83,-77,42,0.835015,0.187769,1.086076
26111547,3692,22540,12750,24,-120,25,0.836566,0.188295,1.086857
26127174,3850,22594,12554,-86,-160,8,0.839033,0.188478,1.086359
26142801,3972,22412,12388,-180,-187,5,0.842809,0.188904,1.085217
26158427,3938,22160,12232,-236,-207,-5,0.852992,0.189859,1.081470
26174052,4050,21916,12342,-293,-231,-17,0.865833,0.190978,1.076333
26189678,4238,21750,12428,-303,-245,-7,0.872691,0.191711,1.073431
26205305,4184,21470,12462,-355,-249,-19,0.887054,0.193374,1.067182
26220932,4042,20832,12760,-372,-278,-29,0.895053,0.194094,1.063564
26236558,4028,20396,12932,-300,-333,-34,0.912256,0.195876,1.056315
26252184,4010,20174,13268,-208,-379,-33,0.920675,0.196950,1.053305
26267810,4210,20074,13290,-51,-469,-23,0.937259,0.199919,1.049736
26283437,4222,20126,13258,9,-490,-23,0.945335,0.201930,1.049486
26299064,4248,20268,13180,148,-583,-48,0.960806,0.206096,1.050690
26314690,4474,20618,13316,157,-644,-83,0.977365,0.210582,1.054913
26330316,4846,20982,13224,143,-708,-107,0.987456,0.212754,1.057143
26345942,5170,21262,13062,144,-755,-118,1.009661,0.217666,1.062237
26361567,5268,21328,13050,88,-795,-146,1.022210,0.220254,1.064859
26377194,5474,21464,13022,55,-845,-154,1.050861,0.225490,1.069328
26392820,5684,21556,12984,24,-894,-151,1.066760,0.228332,1.071309
26408447,6012,21742,12980,-24,-931,-158,1.101876,0.234436,1.074796
26424074,6182,22032,12990,-89,-979,-148,1.120610,0.237563,1.076214
26439700,6552,22104,12784,-172,-1013,-148,1.161577,0.244480,1.078266
26455325,6692,21890,12710,-251,-1033,-159,1.206497,0.251937,1.078736
26470952,6782,21534,12980,-290,-1060,-156,1.606315,-0.997407,-0.651705
26486578,7004,21072,12920,-317,-1095,-162,1.279607,0.263661,1.076629
26502204,7378,20842,12700,-320,-1125,-176,1.304708,0.267792,1.075661
26517831,7890,20858,12420,-306,-1143,-171,1.356904,0.276491,1.074080
26533458,8212,20796,12414,-286,-1139,-153,1.382854,0.281149,1.073653
26549083,8494,20660,12462,-281,-1142,-150,1.433605,0.290894,1.073294
26564709,8834,20400,12376,-275,-1141,-165,1.483700,0.300645,1.073169
26580335,9110,20158,12286,-236,-1142,-168,1.508377,0.305484,1.073333
26595962,9574,19986,12072,-213,-1138,-169,1.557420,0.315329,1.074584
26611589,9902,19996,12004,-180,-1121,-164,1.581139,0.320403,1.075611
26627216,10204,20116,12136,-124,-1107,-144,1.627133,0.330542,1.078432
26642843,10434,20200,12248,-103,-1092,-134,1.649367,0.335703,1.080501
26658469,10578,20218,12186,-88,-1085,-129,1.692237,0.345954,1.084828
26674096,10786,20144,12134,-74,-1087,-137,1.713220,0.351066,1.087180
26689722,11248,20078,11972,-52,-1103,-133,1.754428,0.360978,1.092330
26705348,11694,20032,11690,-46,-1085,-126,1.794918,0.371276,1.098151
26720975,12070,20078,11680,-38,-1062,-124,1.814506,0.376434,1.101348
26736602,12126,20360,12050,-29,-1048,-117,1.851742,0.386568,1.107637
26752228,11828,20848,12444,-124,-1054,-144,1.869409,0.391549,1.110725
26767854,12128,20950,12164,-252,-1111,-155,1.903625,0.400538,1.114745
26783480,12630,20516,11758,-334,-1124,-155,1.920574,0.405012,1.115817
26799107,12882,19776,11660,-371,-1142,-203,1.952488,0.414434,1.116813
26814733,13252,19336,11706,-272,-1152,-204,1.983826,0.423409,1.118319
26830359,13534,19306,11504,-195,-1182,-176,1.999160,0.428246,1.120003
26845985,13764,19464,11586,-109,-1187,-155,2.029289,0.438514,1.125172
26861611,14002,19600,11488,-57,-1225,-136,2.044400,0.443799,1.128788
26877237,14180,19648,11248,-20,-1237,-146,2.074379,0.454883,1.137565
26892862,14428,19748,11202,17,-1256,-154,2.089375,0.460241,1.142620
26908489,14776,19932,11024,1,-1299,-154,2.119165,0.470961,1.153749
26924115,15192,20050,10714,-38,-1316,-158,2.133709,0.476464,1.159404
26939742,15536,20150,10488,-100,-1331,-159,2.161708,0.487212,1.170527
26955368,15730,19972,10342,-145,-1337,-177,2.187514,0.497801,1.180980
26970994,15894,19812,10272,-176,-1372,-199,2.199780,0.502874,1.185882
26986619,16348,19720,9954,-175,-1406,-205,2.223449,0.512691,1.195899
27002245,16848,19604,9582,-151,-1417,-200,2.235036,0.517777,1.201288
27017871,17168,19676,9322,-119,-1417,-204,2.257473,0.527928,1.213098
27033498,17440,19720,8986,-79,-1409,-196,2.268149,0.533055,1.219569
27049124,17604,19732,8742,-54,-1394,-189,2.289115,0.542877,1.233655
27064750,17858,19666,8488,-35,-1393,-191,2.298895,0.547787,1.241019
27080377,18574,19696,7908,-11,-1383,-198,2.317940,0.557100,1.256433
27096003,18992,19854,7690,27,-1354,-199,2.335937,0.566090,1.272907
27111629,19376,20158,7308,42,-1309,-182,2.344553,0.570368,1.281536
27127254,19584,20264,7002,37,-1241,-154,2.359968,0.578865,1.298707
27142880,19512,20126,7048,23,-1179,-151,2.366662,0.582947,1.306800
27158507,19534,20092,7060,-16,-1171,-173,2.378626,0.590372,1.322009
27174133,19904,20184,6788,-78,-1170,-175,2.389264,0.596958,1.335679
27189759,20330,20128,6398,-70,-1144,-156,2.393988,0.600283,1.342194
27205385,20504,19882,6172,16,-1072,-156,2.402572,0.606962,1.355732
27221012,20490,19908,6230,101,-1054,-139,2.406726,0.610101,1.362977
27236638,20788,20182,5900,138,-1059,-117,2.415025,0.616373,1.378905
27252264,21090,20526,5754,114,-1041,-137,2.418974,0.619550,1.387294
27267889,21382,20934,5480,41,-1010,-159,2.426379,0.625003,1.402934
27283516,21452,20948,5186,-57,-967,-161,2.432522,0.629489,1.415937
27299142,21350,20498,5256,-117,-940,-163,2.435039,0.631565,1.421332
27314769,21304,20174,5142,-129,-945,-187,2.437041,0.633562,1.426178
27330396,21586,20120,4846,-95,-954,-192,2.441528,0.637000,1.436058
27346023,21872,20344,4712,-72,-955,-185,2.445959,0.640304,1.446922
27361649,22066,20464,4446,-88,-940,-185,2.448019,0.642076,1.452578
27377275,22168,20418,4094,-98,-919,-187,2.451640,0.645275,1.463274
27392900,22150,20270,3716,-50,-891,-172,2.453466,0.646785,1.468620
27408527,22322,20050,3504,31,-870,-162,2.456517,0.650079,1.480127
27424153,22522,20224,3406,93,-860,-161,2.458158,0.651745,1.486709
27439778,22612,20666,3508,105,-843,-148,2.461358,0.654979,1.500713
27455403,22730,21234,3276,33,-831,-144,2.462759,0.656524,1.507430
27471030,22698,21204,2834,-83,-787,-146,2.464898,0.659292,1.518978
27486656,22750,20796,2660,-116,-764,-162,2.466438,0.661432,1.527988
27502282,22778,20394,2640,-72,-753,-170,2.467064,0.662412,1.532047
27517909,22894,20428,2600,-36,-758,-176,2.468237,0.664419,1.540976
27533535,23116,20632,2472,-24,-758,-164,2.469034,0.665305,1.545846
27549161,23356,20934,2198,-35,-746,-148,2.469927,0.667365,1.555324
27564788,23354,20966,1990,-38,-716,-136,2.470268,0.668423,1.560066
27580413,23226,20922,1750,-30,-690,-144,2.470406,0.670634,1.568986
27596039,23262,20796,1444,19,-659,-133,2.470826,2.469067,1.578134
27611665,23416,20906,1438,46,-651,-125,2.470816,2.468001,1.582969
27627292,23612,21142,1412,22,-646,-125,2.470828,2.465988,1.592652
27642917,23638,21318,1398,-25,-621,-115,2.470610,2.464921,1.597059
27658543,23512,21196,1222,-76,-614,-120,2.469878,2.462888,1.604514
27674168,23424,21040,984,-83,-609,-114,2.469437,2.462048,1.607614
27689795,23366,20948,952,-41,-607,-96,2.468490,2.460194,1.614203
27705420,23566,21006,968,-9,-620,-90,2.467751,2.459061,1.617887
27721047,23656,21250,940,-32,-629,-104,2.466468,2.456922,1.625865
27736674,23760,21406,772,-72,-646,-91,2.465360,2.455175,1.633276
27752301,23680,21168,492,-90,-644,-83,2.464595,2.454239,1.636623
27767927,23532,20834,278,-59,-637,-87,2.462946,2.452290,1.643461
27783554,23656,20768,-16,11,-647,-85,2.462153,2.451361,1.647371
27799181,23874,21012,-146,74,-653,-82,2.460732,2.449476,1.657046
27814808,23946,21424,24,81,-661,-67,2.460166,2.448657,1.662540
27830433,23944,21628,-104,7,-675,-65,2.458536,2.446792,1.673100
27846060,23990,21650,-706,-84,-663,-85,2.457730,2.446043,1.677554
27861687,23972,21350,-1132,-93,-624,-73,2.456201,2.445003,1.685021
27877313,23930,21126,-948,-88,-618,-67,2.454228,2.443594,1.692085
27892939,24086,21208,-1064,-92,-634,-74,2.453159,2.442861,1.695522
27908566,24326,21326,-1202,-114,-655,-80,2.451150,2.441645,1.702656
27924191,24260,21356,-1414,-127,-636,-70,2.450053,2.441138,1.706089
27939818,24168,21284,-1712,-142,-616,-80,2.447803,2.439911,1.712476
27955443,24276,21102,-2204,-121,-600,-80,2.446744,2.439498,1.715501
27971070,24348,20958,-2368,-56,-565,-68,2.444490,2.438398,1.722329
27986697,24608,21220,-2620,-17,-546,-60,2.441761,2.436828,1.730234
28002324,24752,21450,-2798,-27,-497,-50,2.440444,2.436073,1.734217
28017950,24620,21464,-2810,-42,-438,-45,2.437497,2.434253,1.741276
28033576,24566,21402,-3092,-78,-392,-53,2.435954,2.433272,1.743981
28049203,24558,21228,-3156,-76,-351,-45,2.433048,2.431413,1.748109
28064828,24704,21122,-3148,-36,-304,-38,2.431404,2.430291,1.750067
28080455,24716,21180,-3024,-16,-261,-48,2.428119,2.427794,1.753643
28096082,24594,21172,-2994,-11,-225,-34,2.426531,2.426564,1.755269
28111707,24588,21258,-2858,7,-201,-26,2.423234,2.423790,1.757757
28127333,24484,21334,-2814,35,-190,-33,2.419931,2.421008,1.760125
28142960,24368,21366,-2794,61,-166,-41,2.418363,2.419724,1.761399
28158585,24286,21426,-2860,47,-152,-55,2.415820,2.417436,1.763863
28174212,24340,21484,-2930,13,-146,-65,2.414754,2.416538,1.764790
28189838,24530,21500,-3036,-1,-142,-63,2.412601,2.414720,1.765739
28205464,24702,21626,-3058,-4,-116,-58,2.411523,2.413805,1.766109
28221091,24670,21524,-3178,-15,-85,-48,2.409218,2.411713,1.766318
28236718,24484,21402,-3120,-4,-28,-42,2.407992,2.410535,1.766156
28252344,24354,21460,-3010,31,-11,-33,2.405495,2.407985,1.765175
28267970,24482,21506,-2804,57,-15,-22,2.402833,2.405241,1.764526
28283596,24514,21574,-2784,60,-5,-21,2.401379,2.403724,1.764487
28299223,24458,21696,-2778,45,7,-28,2.398766,2.400903,1.763702
28314848,24274,21734,-2598,22,11,-23,2.397499,2.399540,1.763221
28330475,24148,21580,-2570,-1,8,-28,2.395134,2.396956,1.761114
28346100,24228,21518,-2666,-11,1,-39,2.394035,2.395761,1.759922
28361726,24432,21548,-2686,2,0,-30,2.392103,2.393675,1.757728
28377352,24414,21470,-2550,20,16,-17,2.389695,2.391165,1.755995
28392979,24310,21524,-2284,30,1,-7,2.388541,2.389845,1.755215
28408605,24238,21508,-2370,25,-11,-8,2.385946,2.387152,1.753605
28424230,24170,21616,-2424,16,-18,-10,2.384779,2.385851,1.752904
28439856,24304,21534,-2492,33,-20,-10,2.382561,2.383541,1.751729
28455482,24314,21502,-2420,45,-21,-18,2.381421,2.382440,1.751354
28471108,24390,21642,-2432,40,-28,-19,2.379413,2.380307,1.750729
28486734,24256,21746,-2406,16,-25,-11,2.378416,2.379231,1.750410
28502359,24244,21642,-2402,-19,-32,-14,2.376448,2.377223,1.748999
28517985,24250,21516,-2358,-13,-49,-16,2.374657,2.375401,1.747392
28533612,24346,21372,-2554,19,-49,-8,2.373693,2.374487,1.746817
28549239,24426,21494,-2572,45,-41,-11,2.371515,2.372376,1.746464
28564865,24326,21674,-2508,56,-26,-3,2.370515,2.371322,1.746582
28580499,24222,21720,-2466,46,-24,13,2.368490,2.369230,1.746473
28596125,24216,21700,-2358,27,-35,14,2.367389,2.368077,1.746331
28611752,24324,21634,-2370,17,-45,8,2.365237,2.365913,1.745786
28627378,24304,21548,-2384,8,-48,12,2.363259,2.363950,1.745192
28643005,24304,21546,-2472,3,-43,6,2.362215,2.362922,1.744698
28658632,24316,21536,-2462,11,-42,7,2.360226,2.360964,1.743971
28674258,24314,21612,-2390,16,-44,12,2.359289,2.360030,1.743869
28689883,24368,21570,-2328,2,-49,11,2.357299,2.358083,1.743364
28705509,24238,21562,-2406,-19,-45,-3,2.356360,2.357126,1.742814
28721136,24276,21484,-2450,-19,-48,-5,2.354825,2.355632,1.741713
28736761,24302,21368,-2404,-10,-55,-1,2.353954,2.354805,1.741169
28752388,24334,21326,-2442,-3,-57,-4,2.352418,2.353333,1.740515
28768014,24364,21402,-2542,27,-50,8,2.350699,2.351686,1.740226
28783640,24366,21490,-2466,40,-47,18,2.349759,2.350762,1.740349
28799267,24312,21538,-2432,28,-47,5,2.348001,2.348963,1.740534
28814893,24258,21592,-2416,23,-44,4,2.347220,2.348252,1.740394
28830519,24272,21510,-2434,10,-49,-4,2.345805,2.346852,1.740175
28846145,24344,21526,-2430,-8,-56,-16,2.345222,2.346305,1.739887
28861771,24322,21530,-2392,-14,-60,-13,2.344174,2.345263,1.739118
28877397,24374,21374,-2444,-10,-60,-10,2.342994,2.344188,1.738505
28893023,24392,21324,-2486,38,-50,1,2.342304,2.343569,1.738273
28908649,24338,21374,-2506,78,-43,12,2.340810,2.342088,1.738820
28924275,24358,21588,-2516,95,-40,15,2.340081,2.341329,1.739288
28939902,24358,21762,-2384,70,-41,4,2.338633,2.339818,1.740584
28955528,24268,21774,-2414,19,-39,-1,2.338064,2.339273,1.740788
28971154,24330,21632,-2418,-22,-36,0,2.337220,2.338391,1.740044
28986781,24386,21478,-2518,-22,-28,-5,2.336636,2.337821,1.739301
29002408,24364,21376,-2438,-8,-27,-2,2.335476,2.336677,1.737946
29018034,24326,21434,-2326,-6,-18,-4,2.334346,2.335500,1.736844
29033660,24262,21402,-2352,1,-21,1,2.333753,2.334938,1.736008
29049286,24206,21360,-2260,5,-31,7,2.332707,2.333873,1.734950
29064913,24314,21380,-2306,18,-37,7,2.332046,2.333199,1.734516
29080540,24286,21392,-2254,47,-35,12,2.330814,2.331981,1.734283
29096165,24340,21440,-2236,63,-37,22,2.330183,2.331286,1.734335
29111791,24300,21522,-2270,57,-35,14,2.328882,2.329971,1.734776
29127417,24254,21610,-2176,50,-39,3,2.327764,2.328830,1.734846
29143043,24172,21548,-2106,29,-56,1,2.327394,2.328447,1.734900
29158669,24290,21498,-2370,6,-76,-7,2.326794,2.327930,1.734807
29174295,24364,21434,-2432,10,-69,-10,2.326487,2.327682,1.734744
29189922,24370,21468,-2358,16,-57,-10,2.325803,2.327066,1.734834
29205547,24306,21400,-2340,8,-54,-8,2.325503,2.326813,1.734903
29221173,24300,21430,-2410,-7,-47,-9,2.324826,2.326159,1.734436
29236800,24270,21384,-2360,-3,-52,-8,2.324502,2.325923,1.734149
29252427,24360,21302,-2404,-4,-58,-17,2.323926,2.325355,1.733723
29268053,24396,21354,-2418,18,-54,-7,2.323726,2.325177,1.733603
