elbow_0
Module: E0:5A:1B:76:00:58 (06)
t(us),ax,ay,az,gx,gy,gz,y,p,r
1,24102,19612,-3168,-16,26,11,-0.000181,0.007325,0.016114
15627,24172,19658,-3178,-24,23,8,-0.000999,0.029670,0.034431
31254,24244,19568,-3188,-42,21,5,-0.001503,0.040902,0.043599
46880,24204,19516,-3192,-53,27,6,-0.002816,0.063731,0.061481
62507,24166,19386,-3090,-36,32,8,-0.003616,0.074959,0.070318
78133,24134,19398,-3166,-24,26,10,-0.005538,0.097413,0.088422
93759,24172,19530,-3108,-12,19,10,-0.006773,0.108642,0.097439
109386,24176,19576,-3092,-6,17,9,-0.009359,0.131323,0.116062
125012,24184,19580,-3160,-23,19,5,-0.012388,0.153871,0.134945
140639,24204,19528,-3134,-32,23,7,-0.014048,0.165071,0.144251
156265,24246,19500,-3098,-29,27,7,-0.017674,0.187353,0.162758
171890,24152,19452,-3090,-21,24,6,-0.019646,0.198423,0.172076
187517,24254,19504,-3112,-12,17,8,-0.023915,0.220416,0.190858
203144,24256,19496,-3198,-20,24,11,-0.026231,0.231472,0.200342
218770,24126,19478,-3166,-26,36,11,-0.031258,0.253197,0.219197
234396,24100,19582,-3170,-26,27,16,-0.036664,0.274516,0.238024
250021,24084,19568,-3114,-22,12,14,-0.039482,0.285159,0.247550
265648,24232,19560,-3202,-27,9,9,-0.045570,0.306449,0.266561
281275,24252,19596,-3082,-41,20,7,-0.048581,0.317046,0.276072
296902,24194,19458,-2994,-48,31,8,-0.055084,0.337768,0.294888
312529,24114,19332,-3148,-35,27,6,-0.058323,0.347960,0.304223
328155,24164,19386,-3258,-9,18,7,-0.065403,0.368014,0.323244
343781,24196,19602,-3200,11,17,11,-0.069168,0.378066,0.333080
359408,24220,19748,-3178,-4,19,11,-0.077209,0.397885,0.353244
375034,24264,19728,-3132,-36,18,6,-0.085509,0.417409,0.373302
390660,24188,19584,-3158,-59,28,2,-0.089573,0.427002,0.382948
406286,24142,19464,-3050,-62,36,3,-0.097830,0.445559,0.401950
421912,24054,19350,-3052,-48,27,5,-0.101886,0.454501,0.411331
437537,24132,19358,-3034,-23,14,12,-0.110807,0.472512,0.430462
453163,24304,19426,-3068,1,7,13,-0.115550,0.481552,0.440246
468798,24316,19562,-3184,7,18,10,-0.125619,0.499441,0.460503
484425,24184,19716,-3208,-17,36,6,-0.135814,0.516372,0.480965
500050,24144,19578,-3142,-33,30,4,-0.141008,0.524701,0.491078
515677,24064,19508,-3102,-45,19,3,-0.151151,0.540762,0.510892
531303,24180,19504,-3080,-49,9,6,-0.156326,0.548782,0.520630
546929,24288,19482,-3172,-43,11,9,-0.166841,0.564722,0.540208
562555,24268,19456,-3196,-18,23,11,-0.172280,0.572563,0.549995
578181,24172,19558,-3224,-5,34,10,-0.183684,0.587546,0.570212
593807,24090,19592,-3184,-22,36,9,-0.189506,0.594852,0.580343
609433,24038,19512,-3080,-34,20,9,-0.201113,0.608883,0.600309
625060,24208,19520,-3122,-38,5,8,-0.212738,0.622659,0.620220
640687,24332,19506,-3222,-36,9,7,-0.218565,0.629541,0.630200
656313,24282,19566,-3126,-33,35,5,-0.230600,0.642959,0.650026
671939,24146,19490,-3134,-33,37,6,-0.236621,0.649219,0.659980
687565,24060,19504,-3176,-31,27,6,-0.248763,0.661435,0.679555
703190,24070,19442,-3136,-28,14,8,-0.254909,0.667391,0.689455
718816,24244,19476,-3240,-11,6,12,-0.267478,0.679291,0.709437
734441,24314,19658,-3164,-5,24,12,-0.274036,0.685278,0.719479
750068,24196,19644,-3122,-27,36,8,-0.287255,0.696478,0.739821
765695,24148,19584,-3160,-65,31,4,-0.299825,0.706878,0.759247
781321,24104,19420,-3006,-73,24,4,-0.305877,0.711916,0.768621
796948,24198,19328,-3094,-61,20,4,-0.317687,0.721753,0.787053
812574,24212,19388,-3136,-38,18,3,-0.323902,0.726719,0.796404
828201,24224,19420,-3154,-6,19,8,-0.336770,0.736179,0.815426
843828,24224,19460,-3158,17,20,9,-0.343542,0.740838,0.825321
859454,24160,19558,-3114,-2,20,10,-0.357352,0.749663,0.845329
875079,24208,19658,-3160,-9,17,13,-0.370870,0.758164,0.864775
890706,24256,19714,-3158,-17,17,10,-0.377596,0.762269,0.874389
906332,24276,19704,-3176,-36,29,8,-0.390633,0.770022,0.893286
921957,24222,19554,-3226,-64,36,4,-0.396861,0.773777,0.902402
937584,24104,19400,-3066,-74,35,2,-0.408886,0.780753,0.919981
953209,24086,19360,-2998,-58,21,6,-0.414804,0.784197,0.928423
968836,24218,19394,-3022,-32,9,5,-0.426904,0.790932,0.945827
984463,24348,19450,-3096,-2,12,3,-0.433232,0.794307,0.954621
1000090,24212,19450,-3176,1,27,7,-0.446346,0.800743,0.972795
1015717,24088,19502,-3182,-1,34,12,-0.459419,0.806680,0.990821
1031344,24080,19604,-3212,2,20,13,-0.459419,0.806680,0.990821
1046970,24180,19698,-3218,1,9,8,-0.478997,0.815059,1.017496
1062596,24318,19782,-3226,-15,13,11,-0.485433,0.817752,1.026480
1078222,24348,19632,-3108,-51,31,4,-0.497793,0.822864,1.043597
1093849,24220,19512,-3126,-82,47,3,-0.503380,0.825148,1.051461
1109475,24048,19356,-3112,-77,46,6,-0.513800,0.829523,1.066180
1125102,24054,19378,-3076,-35,14,3,-0.524612,0.833768,1.080916
1140729,24140,19430,-3114,-11,3,7,-0.530475,0.835973,1.088938
1156355,24208,19400,-3100,1,14,14,-0.542427,0.840149,1.105128
1171982,24248,19506,-3100,4,21,9,-0.548632,0.842239,1.113127
1187608,24198,19608,-3124,10,21,8,-0.560429,0.845975,1.128948
1203235,24238,19656,-3178,8,16,8,-0.566511,0.847821,1.137011
1218861,24164,19636,-3188,-22,23,5,-0.577962,0.851138,1.152466
1234487,24168,19626,-3168,-48,35,9,-0.583394,0.852800,1.159683
1250114,24128,19542,-3164,-51,27,9,-0.593361,0.855673,1.173248
1265741,24172,19446,-3154,-46,14,11,-0.603298,0.858618,1.186633
1281368,24272,19382,-3194,-36,22,15,-0.608430,0.860064,1.193367
1296995,24206,19428,-3104,-27,24,11,-0.618635,0.862935,1.206739
1312621,24186,19546,-3050,-16,22,7,-0.623703,0.864286,1.213312
1328246,24254,19610,-3076,-10,18,6,-0.633721,0.866731,1.226649
1343872,24316,19540,-3178,-21,18,3,-0.638746,0.867883,1.233315
1359499,24218,19504,-3212,-30,25,2,-0.648270,0.869971,1.246088
1375124,24184,19460,-3170,-20,28,5,1.065181,-1.975111,-2.093158
1390751,24166,19554,-3210,-8,17,10,-0.662254,0.872973,1.264588
1406377,24224,19620,-3208,1,8,10,-0.671841,0.874920,1.277247
1422002,24202,19672,-3116,-19,19,10,-0.676666,0.875857,1.283511
1437629,24186,19646,-3186,-48,32,13,-0.685473,0.877503,1.295099
1453255,24174,19544,-3200,-58,35,7,-0.689446,0.878332,1.300308
1468881,24178,19430,-3130,-52,31,5,-0.696994,0.879710,1.310477
1484507,24224,19410,-3054,-43,23,5,-0.700925,0.880426,1.315622
1500133,24196,19362,-3024,-35,20,5,-0.708614,0.881800,1.325818
1515759,24284,19420,-3076,-14,19,2,-0.716370,0.883129,1.335929
1531385,24200,19438,-3246,6,18,4,-0.720562,0.883749,1.341439
1547010,24254,19596,-3202,17,19,6,-0.728825,0.884890,1.352232
1562636,24248,19702,-3240,8,18,10,-0.733140,0.885495,1.357734
1578263,24218,19744,-3278,-16,24,8,-0.741102,0.886516,1.368151
1593889,24196,19680,-3140,-40,30,6,-0.744765,0.886883,1.373053
1609516,24162,19580,-3160,-64,32,6,-0.751258,0.887680,1.381665
1625142,24154,19464,-3192,-76,33,4,-0.754206,0.888050,1.385725
1640769,24182,19408,-3160,-52,29,8,-0.759687,0.888682,1.393182
1656396,24182,19468,-3210,-29,21,7,-0.765886,0.889491,1.401368
1672022,24118,19426,-3064,-25,23,5,-0.769220,0.889879,1.405632
1687649,24158,19374,-2982,-21,20,5,-0.775672,0.890615,1.413840
1703275,24218,19436,-3138,-5,10,6,-0.778806,0.890967,1.417987
1718902,24308,19554,-3144,15,13,7,-0.785673,0.891627,1.426666
1734529,24274,19668,-3212,20,25,7,-0.789061,0.891980,1.431040
1750155,24190,19736,-3212,-11,34,5,-0.795606,0.892361,1.439579
1765781,24130,19598,-3190,-46,32,3,-0.800947,0.892661,1.446819
1781406,24148,19580,-3148,-53,24,6,-0.803531,0.892853,1.450131
1797031,24168,19498,-3054,-50,24,6,-0.808155,0.893101,1.456623
1812657,24130,19488,-2990,-34,27,7,-0.810585,0.893333,1.459709
1828284,24198,19492,-3122,-32,23,5,-0.815555,0.893659,1.466215
1843909,24308,19396,-3178,-36,28,0,-0.817977,0.893833,1.469289
1859536,24148,19284,-3202,-21,33,1,-0.822780,0.894144,1.475555
1875161,24080,19416,-3214,3,31,5,-0.825412,0.894305,1.478967
1890787,24218,19616,-2962,16,8,4,-0.830736,0.894611,1.485750
1906413,24332,19682,-3076,8,2,2,-0.836067,0.894729,1.492889
1922040,24430,19626,-3284,-9,14,-1,-0.838784,0.894742,1.496431
1937667,24320,19592,-3438,-32,46,2,-0.843451,0.894845,1.502702
1953294,24102,19542,-3222,-27,59,10,-0.845478,0.894989,1.505206
1968919,23990,19638,-3208,-11,39,13,-0.849202,0.895138,1.510071
1984545,24066,19662,-3100,-32,13,9,-0.851430,0.895269,1.512911
2000172,24218,19580,-3052,-64,11,3,-0.855297,0.895206,1.518217
2015799,24286,19380,-3184,-80,29,0,-0.858442,0.895284,1.522333
2031425,24126,19244,-3080,-57,38,2,-0.860005,0.895406,1.524219
2047051,24068,19304,-3070,-9,23,3,-0.863019,0.895493,1.528244
2062678,24144,19452,-3198,18,4,8,-0.865243,0.895598,1.531088
2078305,24196,19578,-3266,26,6,6,-0.870133,0.895820,1.537138
2093931,24174,19610,-3342,19,23,12,-0.872435,0.895782,1.540300
2109557,24168,19742,-3372,5,26,15,-0.877071,0.895952,1.546000
2125184,24084,19856,-3244,-10,28,13,-0.879008,0.895977,1.548604
2140811,24084,19778,-3014,-69,35,5,-0.882294,0.895866,1.553149
2156436,24120,19448,-3080,-106,29,3,-0.884106,0.895575,1.555766
2172062,24272,19270,-3182,-95,22,3,-0.884668,0.895510,1.556721
2187687,24254,19142,-3194,-50,23,5,-0.886988,0.895718,1.559500
2203312,24178,19336,-3048,-3,26,10,-0.888669,0.895906,1.561478
2218938,24082,19522,-3046,9,18,11,-0.892078,0.896101,1.565598
2234564,24166,19598,-3126,5,10,5,-0.893957,0.896267,1.567782
2250191,24248,19566,-3296,-8,7,-4,-0.897445,2.245481,1.572463
2265816,24230,19510,-3292,-13,25,7,-0.898993,2.245649,1.574733
2281442,24076,19606,-3192,-9,31,12,-0.902193,2.245670,1.578769
2297068,24080,19756,-3216,-14,19,13,-0.905074,2.245578,1.582422
2312694,24214,19778,-3270,-32,11,7,-0.906486,2.245674,1.584273
2328320,24322,19730,-3082,-69,21,0,-0.908988,2.245767,1.587633
2343947,24146,19456,-3098,-99,45,-1,-0.909657,2.245975,1.588699
2359574,24090,19334,-3162,-91,48,1,-0.910125,2.246187,1.589476
2375201,24026,19290,-3228,-58,27,4,-0.910549,2.246205,1.590074
2390828,24184,19524,-3136,-19,7,0,-0.912567,2.246156,1.592654
2406454,24286,19664,-3034,-23,7,-2,-0.915469,2.246304,1.596267
2422079,24234,19512,-2956,-49,24,0,-0.916522,2.246343,1.597753
2437705,24186,19274,-3118,-54,30,-4,-0.918083,2.246547,1.599864
2453332,24172,19264,-3324,-18,32,-1,-0.918792,2.246500,1.600796
2468958,24108,19436,-3308,36,29,5,-0.921141,2.246532,1.603759
2484583,24170,19652,-3182,45,24,12,-0.922882,2.246508,1.606007
2500210,24074,19708,-3122,-3,30,11,-0.925832,2.246545,1.609814
2515836,24040,19754,-3070,-55,32,9,-0.926855,2.246609,1.611085
2531462,24182,19604,-3142,-79,17,-10,-0.927920,2.246892,1.612718
2547089,24262,19428,-3084,-57,25,-15,-0.928672,2.247300,1.614032
2562716,24168,19328,-3058,-54,46,-12,-0.929119,2.247519,1.614822
2578342,23996,19230,-2956,-58,60,-6,-0.929612,2.247706,1.615634
2593968,23958,19198,-3004,-21,37,2,-0.929883,2.247658,1.615882
2609595,24106,19314,-3144,34,19,6,-0.931386,2.247662,1.617902
2625221,24170,19468,-3258,87,36,8,-0.932915,2.247630,1.619817
2640848,24132,19664,-3246,111,50,12,-0.936617,2.247478,1.624373
2656475,24126,19948,-3204,58,59,12,-0.939349,2.247588,1.628153
2672101,24220,20062,-3200,-1,67,-5,-0.940265,2.247684,1.629547
2687727,24326,20046,-3362,-58,85,-28,-0.940145,2.248373,1.630366
2703354,24260,19868,-3408,-113,122,-38,-0.939457,2.248851,1.629960
2718981,24072,19548,-3210,-129,141,-34,-0.936559,2.249815,1.627599
2734607,23868,19306,-3144,-93,128,-31,-0.934860,2.250221,1.625932
2750234,23844,19270,-3112,-34,104,-25,-0.932851,2.250917,1.624101
2765859,23990,19328,-3318,8,86,-17,-0.932679,2.251047,1.624137
2781484,24068,19388,-3230,23,75,-23,-0.933292,2.251409,1.625450
2797110,23966,19432,-3216,22,86,-10,-0.934043,2.251823,1.627068
2812737,23766,19464,-2970,12,83,-5,-0.934495,2.251942,1.627883
2828362,23762,19306,-3014,-16,83,-27,-0.934579,2.252169,1.628406
2843988,23810,19310,-2972,21,44,-32,-0.934383,2.252546,1.628650
2859615,24060,19190,-3024,73,-4,-15,-0.935523,2.253238,1.631064
2875241,24192,19196,-3194,102,16,-21,-0.937356,2.253265,1.633413
2890867,24090,19414,-3260,128,58,-35,-0.940427,2.253597,1.637956
2906493,23646,19622,-3310,135,64,-11,1.137011,-0.576699,0.587154
2922120,23532,19662,-3460,140,26,-8,-0.944096,2.254288,1.644033
2937746,23738,19772,-3596,166,-14,-24,-0.947317,2.255171,1.649569
2953372,24018,19872,-3676,177,-16,-31,-0.949660,2.255621,1.653166
2968998,24060,19904,-3704,162,17,-19,-0.953763,2.256578,1.660028
2984623,23890,19870,-3806,117,56,-12,-0.955297,2.256916,1.662674
3000249,23678,19758,-3902,77,76,-4,-0.957350,2.257408,1.666246
3015875,23476,19718,-3674,92,63,2,-0.958047,2.257565,1.667583
3031502,23646,19704,-3660,160,13,-4,-0.960146,2.257990,1.671075
3047129,23820,19716,-3700,176,1,-12,-0.963483,2.258515,1.676634
3062755,23966,19614,-3712,162,16,-8,-0.965403,2.258822,1.679660
3078382,23972,19490,-3830,161,35,-5,-0.968638,2.259150,1.684909
3094008,23850,19596,-3774,212,44,2,-0.970113,2.259223,1.687166
3109634,23672,19870,-3718,275,24,9,-0.973981,2.259186,1.693174
3125261,23710,19986,-3868,258,0,-5,-0.976161,2.259365,1.696807
3140887,23748,20112,-3998,232,-12,-16,-0.980443,2.260068,1.704185
3156514,23870,20088,-4062,216,-22,-16,-0.982387,2.260564,1.707607
3172139,23968,20140,-4252,178,-3,-22,-0.986069,2.261572,1.714420
3187766,23870,20066,-4088,180,11,-33,-0.988939,2.262581,1.720108
3203392,23728,20006,-4154,192,2,-36,-0.989996,2.263143,1.722678
3219019,23612,19982,-4182,191,-12,-34,-0.992340,2.264399,1.728057
3234645,23536,19958,-4298,176,-20,-25,-0.993698,2.265070,1.730888
3250271,23614,19968,-4502,201,-41,-15,-0.996414,2.266204,1.736647
3265897,23674,19992,-4624,243,-63,-13,-0.998446,2.266749,1.740294
3281523,23818,20148,-4628,284,-76,-11,-1.003211,2.267754,1.748785
3297149,23844,20218,-4600,278,-89,-11,-1.008666,2.268872,1.758377
3312776,23908,20240,-4592,254,-87,-18,-1.011123,2.269403,1.762878
3328402,23944,20268,-4720,265,-68,-21,-1.015588,2.270612,1.771119
3344029,23944,20358,-4858,313,-46,-16,-1.017690,2.271231,1.775255
3359654,24010,20460,-5002,342,-39,-15,-1.022166,2.272174,1.783890
3375281,23912,20608,-5092,335,-46,-14,-1.024240,2.272738,1.788216
3390908,23872,20552,-4990,315,-54,-15,-1.028482,2.273935,1.797085
3406535,23806,20370,-4800,292,-62,-17,-1.030499,2.274581,1.801401
3422162,23756,19942,-5216,274,-65,-12,-1.033999,2.275757,1.808884
3437788,23826,20020,-5550,326,-60,-12,-1.037899,2.276672,1.816764
3453414,23816,20442,-5820,414,-61,-7,-1.040332,2.277134,1.821490
3469040,23816,20884,-5680,457,-66,13,-1.045788,2.278093,1.832532
3484666,23820,21092,-5664,421,-78,24,-1.048695,2.278582,1.838438
3500292,23858,20952,-5624,337,-80,9,-1.053582,2.279583,1.848799
3515918,23956,20814,-5790,262,-69,-16,-1.055357,2.280236,1.852903
3531544,23906,20654,-6044,248,-50,-26,-1.057741,2.281817,1.859455
3547170,23952,20698,-6312,310,-41,-25,-1.059988,2.283311,1.865812
3562797,23910,20782,-6332,359,-37,-6,-1.061497,2.283903,1.869677
3578422,23904,20788,-6310,383,-35,7,-1.064767,2.284983,1.878077
3594049,23812,20874,-6330,371,-38,1,-1.066506,2.285412,1.882330
3609676,23780,20954,-6322,335,-40,-7,-1.069508,2.286453,1.890411
3625303,23884,21140,-6638,312,-41,-20,-1.070618,2.287112,1.893911
3640929,23980,21240,-6874,309,-37,-12,-1.072570,2.288627,1.900624
3656556,24056,21286,-6894,286,-30,4,-1.073512,2.289297,1.903889
3672183,24080,21294,-6898,224,6,0,-1.075283,2.290437,1.909653
3687809,23884,21184,-6810,163,23,-11,-1.075833,2.291231,1.913242
3703436,23678,20914,-6806,117,9,-18,-1.075403,2.291778,1.913969
3719063,23714,20598,-6906,123,-11,-27,-1.074721,2.293009,1.915252
3734689,23784,20472,-7002,205,-16,-33,-1.074618,2.293704,1.916411
3750315,23878,20570,-7034,310,-14,-21,-1.075356,2.294831,1.920576
3765942,23876,20876,-7260,391,-11,-4,-1.076243,2.295346,1.923777
3781569,23844,21034,-7348,410,-15,3,-1.078786,2.296123,1.931799
3797195,23792,21074,-7538,393,-29,-8,-1.081191,2.297173,1.939954
3812822,23860,21208,-7642,413,-36,-17,-1.082288,2.297839,1.943985
3828448,23848,21412,-7750,419,-23,-15,-1.084569,2.299368,1.952551
3844074,23832,21498,-7880,399,-17,1,-1.085482,2.300041,1.956555
3859701,23824,21522,-7948,371,-18,11,-1.087321,2.301178,1.964031
3875327,23882,21338,-8136,323,-9,1,-1.088095,2.301802,1.967528
3890952,23980,21278,-8200,285,2,-29,-1.089140,2.302854,1.973165
3906579,23962,21446,-8392,261,17,-66,-1.088677,2.304619,1.977246
3922206,23876,21520,-8194,208,29,-71,-1.087862,2.305728,1.978523
3937832,23588,21266,-8086,208,23,-33,-1.086224,2.307626,1.980243
3953458,23500,21042,-8158,254,3,-20,-1.085705,2.308352,1.981451
3969084,23584,20994,-8286,326,-25,-36,-1.085787,2.309644,1.985643
3984710,23730,21202,-8796,381,-32,-37,-1.086067,2.310471,1.988600
4000337,23776,21410,-9014,360,-14,-19,-1.087264,2.312209,1.995870
4015963,23818,21522,-9082,342,-11,-14,-1.087887,2.313065,1.999323
4031589,23852,21802,-9076,355,-1,-27,-1.088782,2.314372,2.005620
4047215,23838,22006,-8948,321,28,-34,-1.088702,2.315295,2.008502
4062841,23718,22066,-9048,199,57,-34,-1.087859,2.316840,2.012343
4078466,23630,21996,-9104,69,50,-32,-1.085666,2.318259,2.012706
4094093,23654,21764,-9096,22,33,-35,-1.084266,2.319065,2.011902
4109720,23766,21650,-9292,81,25,-26,-1.081701,2.320493,2.010170
4125347,23812,21474,-9280,80,28,-23,-1.080800,2.321168,2.010093
4140973,23710,21164,-9088,24,47,-35,-1.079234,2.322209,2.009684
4156599,23646,21150,-9026,56,79,-63,-1.076567,2.323221,2.007569
4172226,23408,21446,-9062,148,92,-58,-1.074907,2.323788,2.006737
4187853,23390,21782,-9376,176,43,10,-1.073037,2.324730,2.007298
4203480,23524,21772,-9552,92,9,16,-1.072941,2.325025,2.008305
4219106,23684,21578,-9604,18,13,-29,-1.072215,2.325942,2.009030
4234732,23800,21520,-9620,-13,40,-65,-1.071128,2.326618,2.008398
4250359,23704,21456,-9504,-30,68,-55,-1.068297,2.328190,2.006017
4265985,23534,21268,-9234,-7,79,-27,-1.066719,2.328765,2.004451
4281612,23278,21322,-9178,79,68,-12,-1.064386,2.329237,2.002132
4297237,23176,21504,-9522,137,42,-10,-1.063768,2.329407,2.002075
4312863,23360,21224,-9726,93,-18,-24,-1.063078,2.330254,2.003510
4328490,23628,21088,-9692,91,-43,-49,-1.062579,2.331859,2.005343
4344116,23718,21246,-9424,144,-31,-49,-1.062526,2.332770,2.006485
4359742,23734,21612,-9542,213,1,-12,-1.062276,2.334315,2.009398
4375368,23550,21716,-9796,223,20,10,-1.062575,2.334554,2.011294
4390994,23466,21728,-10028,167,28,-26,-1.062928,2.335202,2.014889
4406621,23490,21610,-10076,75,31,-80,-1.062453,2.335845,2.015848
4422246,23434,21458,-10014,34,26,-93,-1.060056,2.338023,2.015521
4437873,23434,21358,-10144,122,34,-44,-1.058677,2.339160,2.015173
4453498,23434,21548,-10526,196,56,-25,-1.057544,2.340433,2.016173
4469125,23482,21602,-10896,181,64,-28,-1.057028,2.341276,2.019086
4484751,23550,21582,-10946,78,74,-55,-1.056764,2.341682,2.020184
4500377,23446,21534,-10478,40,116,-106,-1.054760,2.343074,2.020323
4516003,23372,21932,-9974,87,161,-115,-1.052861,2.343976,2.019147
4531629,23008,22132,-9456,73,156,-74,-1.048374,2.345358,2.016236
4547256,22922,22012,-9254,7,101,-46,-1.046248,2.345832,2.014541
4562882,23040,21800,-9222,-47,57,-53,-1.042631,2.346842,2.010724
4578508,23158,21466,-9082,-90,9,-66,-1.039153,2.348337,2.006832
4594135,23292,21406,-9262,-66,-24,-26,-1.037780,2.349130,2.005076
4609760,23376,21262,-9444,-16,-48,13,-1.036602,2.349956,2.003274
4625386,23348,21184,-9934,36,-53,8,-1.036858,2.350031,2.003482
4641012,23278,21252,-10090,67,-40,-12,-1.037692,2.350701,2.005530
4656638,23106,21516,-9934,105,-33,-22,-1.038024,2.351091,2.006702
4672265,23086,21980,-10050,141,-46,-8,-1.038296,2.352355,2.009443
4687890,23242,22212,-10432,111,-63,30,-1.038735,2.353014,2.011308
4703517,23506,21878,-10816,-26,-46,27,-1.040109,2.353910,2.014706
4719144,23508,21540,-10500,-111,2,-11,-1.040455,2.354573,2.015123
4734770,23318,21432,-10256,-112,47,-18,-1.039762,2.354880,2.013900
4750397,23022,21354,-10080,-87,64,-3,-1.037939,2.355077,2.010684
4766024,22846,21364,-9992,-64,39,-3,-1.037181,2.354993,2.009201
4781649,22814,21418,-9960,-41,-3,0,-1.036063,2.355313,2.007382
4797276,23040,21492,-9952,-6,-29,8,-1.035860,2.355617,2.007082
4812902,23232,21530,-9948,20,-31,18,-1.036089,2.356110,2.007669
4828529,23422,21504,-10166,13,-24,8,-1.036662,2.356318,2.008691
4844155,23470,21404,-10264,-13,-11,-10,-1.036791,2.356576,2.009048
4859780,23370,21304,-10106,-8,6,-15,-1.036505,2.357024,2.008987
4875407,23114,21368,-10026,41,19,-4,-1.036348,2.357123,2.008952
4891033,22980,21632,-10032,88,18,11,-1.036320,2.357203,2.009685
4906659,23088,21758,-10314,89,-8,12,-1.036406,2.357340,2.010486
4922286,23294,21714,-10544,39,-28,-8,-1.036914,2.357926,2.012499
4937913,23448,21552,-10480,-2,-13,-30,-1.036985,2.358411,2.013282
4953539,23290,21408,-10210,8,21,-22,-1.036281,2.359368,2.013193
4969164,23044,21590,-10186,84,28,3,-1.035878,2.359589,2.013242
4984797,22930,21710,-10356,109,11,15,-1.036002,2.359570,2.014011
5000424,23032,21620,-10524,63,-20,4,-1.036402,2.359931,2.016150
5016051,23222,21428,-10464,22,-36,-11,-1.036608,2.360375,2.017007
5031677,23372,21298,-10484,27,-22,-9,-1.036828,2.361202,2.018328
5047303,23178,21242,-10384,69,-1,-3,-1.037066,2.361350,2.018925
5062929,23002,21518,-10302,143,0,-1,-1.037544,2.361628,2.020881
5078555,23078,21892,-10444,162,-15,12,-1.037920,2.361778,2.022375
5094181,23166,21892,-10630,94,-24,10,-1.038902,2.362349,2.026075
5109808,23384,21664,-10670,26,-17,-4,-1.039239,2.362979,2.027999
5125434,23396,21506,-10652,3,3,-10,-1.039247,2.363241,2.028343
5141061,23220,21446,-10522,33,25,-7,-1.038981,2.363590,2.028291
5156688,23014,21688,-10606,78,27,3,-1.038774,2.363674,2.028463
5172314,22972,21632,-10612,58,6,10,-1.038698,2.363820,2.029590
5187941,23106,21588,-10708,15,-8,-1,-1.038768,2.364006,2.030091
5203567,23206,21538,-10752,-16,2,-2,-1.038619,2.364426,2.030456
5219192,23104,21550,-10622,-12,14,6,-1.038285,2.364650,2.029960
5234818,23072,21580,-10740,4,6,11,-1.038102,2.364665,2.029738
5250445,23052,21730,-10586,15,2,13,-1.038039,2.364880,2.029809
5266071,23158,21758,-10714,-2,-1,19,-1.038064,2.364962,2.029995
5281698,23298,21652,-10810,-50,7,21,-1.038000,2.365038,2.029837
5297324,23252,21578,-10832,-74,21,8,-1.037886,2.364948,2.029307
5312951,23210,21566,-10744,-53,28,8,-1.037318,2.364871,2.027636
5328577,23188,21654,-10612,-23,25,21,-1.037042,2.364819,2.027012
5344203,23190,21662,-10640,-39,16,17,-1.036829,2.364552,2.026317
5359829,23238,21586,-10702,-83,25,10,-1.036374,2.364626,2.025233
5375455,23148,21526,-10622,-91,41,11,-1.035981,2.364485,2.024078
5391082,23072,21544,-10500,-58,38,19,-1.035140,2.364129,2.021919
5406709,23076,21714,-10556,-15,15,22,-1.035020,2.363980,2.021329
5422335,23242,21688,-10624,-28,0,25,-1.034925,2.363912,2.020927
5437962,23354,21478,-10674,-75,3,15,-1.035059,2.363792,2.020834
5453589,23284,21360,-10684,-84,28,7,-1.034821,2.363663,2.019477
5469216,23044,21446,-10534,-26,44,14,-1.034252,2.363361,2.017940
5484841,23042,21536,-10590,26,21,26,-1.034039,2.363235,2.017472
5500468,23176,21650,-10690,43,6,22,-1.034518,2.362981,2.018397
5516093,23328,21720,-10838,10,11,10,-1.034796,2.362972,2.018964
5531720,23346,21630,-10630,-38,23,7,-1.034962,2.363074,2.019287
5547347,23196,21618,-10570,-42,38,8,-1.034614,2.363049,2.018800
5562972,23036,21622,-10512,-39,33,7,-1.034051,2.362887,2.017491
5578599,23080,21618,-10460,-40,13,6,-1.033614,2.362995,2.016889
5594226,23206,21666,-10546,-44,13,10,-1.033176,2.363153,2.015992
5609852,23294,21538,-10700,-48,22,10,-1.032896,2.363212,2.015130
5625479,23194,21466,-10690,-49,25,11,-1.032658,2.363125,2.014592
5641106,23102,21444,-10706,-38,24,11,-1.032463,2.362991,2.013786
5656732,23090,21532,-10546,-17,20,16,-1.032435,2.362909,2.013599
5672359,23154,21598,-10550,-6,17,16,-1.032548,2.362847,2.013547
5687986,23232,21700,-10610,-5,20,16,-1.032548,2.362847,2.013547
5703612,23216,21780,-10672,-24,23,15,-1.032451,2.362731,2.013439
5719238,23234,21732,-10638,-61,24,17,-1.032282,2.362679,2.012821
5734865,23230,21570,-10568,-69,29,21,-1.032113,2.362627,2.012202
5750491,23166,21520,-10510,-54,38,16,-1.031721,2.362369,2.010944
5766117,23150,21630,-10512,-27,36,13,-1.031592,2.362161,2.010294
5781744,23168,21544,-10706,-28,31,18,-1.031394,2.361919,2.009724
5797371,23222,21418,-10714,-58,28,10,-1.031366,2.361837,2.009536
5812997,23248,21380,-10646,-65,27,-9,-1.030982,2.361781,2.008566
5828623,23324,21376,-10586,-29,26,-16,-1.030609,2.361924,2.007884
5844249,23244,21486,-10498,19,32,0,-1.030222,2.362137,2.007599
5859875,23102,21666,-10488,40,37,9,-1.030321,2.361976,2.008120
5875501,23038,21734,-10602,14,30,9,-1.030210,2.361929,2.008408
5891128,23140,21724,-10720,-19,15,11,-1.030151,2.362035,2.008718
5906754,23310,21656,-10694,-39,8,8,-1.030064,2.362228,2.008662
5922380,23324,21620,-10672,-46,18,9,-1.029967,2.362281,2.008378
5938005,23376,21510,-10624,-45,31,12,-1.029964,2.362330,2.008082
5953632,23242,21572,-10612,-36,40,9,-1.029739,2.362066,2.007383
5969259,23168,21560,-10560,-21,48,8,-1.029524,2.362002,2.006972
5984885,23100,21612,-10566,-32,38,19,-1.029166,2.361801,2.006307
6000512,23186,21576,-10678,-56,26,17,-1.028895,2.361575,2.005520
6016138,23230,21548,-10680,-48,26,11,-1.028895,2.361575,2.005520
6031765,23216,21554,-10624,-9,32,12,-1.028806,2.361440,2.004720
6047391,23206,21634,-10662,0,37,20,-1.028894,2.361247,2.004774
6063017,23170,21596,-10744,-34,34,13,-1.028868,2.361057,2.004822
6078643,23186,21474,-10646,-58,27,-3,-1.028795,2.361072,2.004606
6094270,23206,21574,-10532,-42,24,-3,-1.028347,2.361232,2.003709
6109896,23240,21520,-10510,-13,18,20,-1.028119,2.361405,2.003519
6125523,23244,21552,-10690,-30,20,26,-1.028461,2.361229,2.003716
6141149,23184,21486,-10620,-43,25,8,-1.028746,2.360949,2.003597
6156775,23242,21586,-10622,-39,24,-2,-1.028533,2.360945,2.003245
6172402,23240,21694,-10544,-27,20,4,-1.028372,2.361153,2.002975
6188029,23262,21594,-10648,-35,26,16,-1.028187,2.361230,2.002812
6203654,23192,21546,-10642,-50,31,18,-1.028196,2.361102,2.002356
6219279,23154,21516,-10612,-43,23,11,-1.028183,2.360902,2.002066
6234904,23248,21584,-10586,-6,5,9,-1.028111,2.360976,2.001910
6250530,23382,21610,-10650,-2,11,14,-1.028469,2.361118,2.002517
6266156,23386,21610,-10620,-9,26,9,-1.028841,2.361022,2.002903
6281782,23260,21670,-10584,-19,39,2,-1.028728,2.361026,2.002896
6297408,23090,21628,-10568,-27,33,4,-1.028585,2.360947,2.002700
6313034,23144,21576,-10610,-29,17,7,-1.028170,2.361139,2.002287
6328660,23302,21584,-10620,-27,13,11,-1.028237,2.361173,2.002207
6344287,23310,21552,-10616,-25,23,-1,-1.028239,2.361232,2.002267
6359913,23226,21632,-10514,-29,39,-8,3.141483,-0.000426,-0.256632
6375539,23094,21696,-10468,-23,47,4,-1.027591,2.361479,2.001545
6391165,23030,21712,-10660,-27,34,16,-1.027217,2.361457,2.001040
6406797,23166,21580,-10686,-53,16,13,-1.027143,2.361472,2.000824
6422423,23326,21420,-10622,-74,10,4,-1.027066,2.361655,2.000433
6438049,23306,21382,-10628,-61,18,-4,-1.027031,2.361682,2.000009
6453676,23212,21482,-10560,-23,29,-1,-1.026855,2.361690,1.999449
6469303,23084,21570,-10526,2,29,15,-1.026698,2.361789,1.999415
6484930,23006,21600,-10426,-2,8,24,-1.027047,2.361563,1.999907
6500557,23180,21626,-10558,-10,-7,16,-1.027451,2.361608,2.000541
6516184,23326,21632,-10736,-13,-1,19,-1.027736,2.361764,2.000932
6531810,23354,21626,-10684,-23,18,18,-1.028483,2.361692,2.001822
6547437,23266,21602,-10590,-42,26,13,-1.028529,2.361654,2.001909
6563063,23178,21546,-10448,-46,22,12,-1.028397,2.361565,2.001377
6578688,23254,21526,-10534,-33,5,8,-1.028435,2.361518,2.001109
6594314,23388,21496,-10630,-9,2,7,-1.028692,2.361653,2.001371
6609939,23378,21514,-10546,8,28,10,-1.028953,2.361620,2.001809
6625565,23016,21654,-10450,-1,48,12,-1.029002,2.361415,2.002073
6641192,22948,21726,-10482,-27,19,6,-1.028931,2.361263,2.002033
6656818,23188,21742,-10644,-45,-8,4,-1.028702,2.361436,2.001843
6672444,23386,21634,-10648,-49,0,15,-1.028753,2.361874,2.001807
6688071,23426,21534,-10670,-37,27,16,-1.028934,2.361906,2.001734
6703698,23238,21502,-10702,-25,36,8,-1.029121,2.361510,2.001507
6719325,23198,21536,-10652,-28,35,3,-1.029076,2.361547,2.001420
6734951,23124,21592,-10574,-30,27,3,-1.028889,2.361565,2.001197
6750577,23142,21504,-10550,-23,20,15,-1.028815,2.361580,2.000981
6766204,23230,21522,-10582,-22,15,14,-1.028816,2.361639,2.001041
6781831,23302,21604,-10488,-2,13,2,-1.029049,2.361583,2.001351
6797457,23268,21704,-10546,3,18,6,-1.029078,2.361665,2.001539
6813084,23234,21646,-10612,-9,23,15,-1.029368,2.361655,2.002106
6828711,23330,21516,-10652,-19,24,10,-1.029368,2.361655,2.002106
6844337,23292,21474,-10590,-22,28,0,-1.029569,2.361459,2.002168
6859963,23164,21582,-10580,-14,30,-1,-1.029524,2.361496,2.002081
6875589,23136,21656,-10622,-10,20,9,-1.029255,2.361658,2.002099
6891216,23210,21574,-10648,-14,11,14,-1.029284,2.361739,2.002287
6906841,23320,21572,-10612,-30,13,13,-1.029427,2.361818,2.002482
6922466,23382,21676,-10544,-25,32,-2,-1.029586,2.361777,2.002576
6938091,23358,21822,-10452,-11,63,-10,-1.029353,2.361833,2.002266
6953716,23132,21952,-10606,-34,70,-2,-1.028491,2.361848,2.001309
6969342,23066,21760,-10576,-91,57,7,-1.027900,2.361821,2.000453
6984968,23150,21544,-10588,-123,43,1,-1.026720,2.361807,1.998109
7000595,23236,21298,-10548,-103,26,-5,0.973629,-0.474699,0.877306
7016221,23258,21232,-10586,-64,17,0,0.973629,-0.474699,0.877306
7031846,23152,21222,-10572,-10,16,2,-1.025545,2.361939,1.994915
7047473,23060,21442,-10614,45,3,10,-1.025965,2.361805,1.995387
7063100,23114,21632,-10660,67,-5,23,-1.027107,2.361856,1.997644
7078727,23210,21692,-10790,44,-1,26,-1.027624,2.361918,1.998977
7094354,23308,21730,-10802,9,3,16,-1.028798,2.361984,2.001026
7109980,23336,21826,-10694,-8,7,-4,-1.029045,2.362129,2.001625
7125605,23346,21836,-10642,-48,25,-1,-1.029017,2.362484,2.001945
7141231,23210,21592,-10560,-82,34,4,-1.028563,2.362643,2.001049
7156857,23086,21454,-10440,-74,36,0,-1.028199,2.362668,2.000268
7172484,23074,21360,-10522,-49,19,11,-1.027683,2.362664,1.998995
7188109,23174,21356,-10592,-22,8,12,-1.027654,2.362642,1.998867
7203736,23246,21482,-10512,2,5,8,-1.028172,2.362684,1.999506
7219361,23320,21586,-10582,23,8,6,-1.028435,2.362651,1.999944
7234986,23226,21706,-10562,22,14,8,-1.029019,2.362749,2.001196
7250612,23218,21690,-10588,3,19,11,-1.029167,2.362719,2.001627
7266238,23210,21704,-10604,-26,21,0,-1.029413,2.362806,2.002165
7281864,23304,21688,-10722,-37,19,-2,-1.029093,2.363112,2.001860
7297491,23216,21624,-10650,-51,30,2,-1.029019,2.363127,2.001645
7313117,23128,21504,-10568,-68,33,2,-1.028654,2.363152,2.000863
7328743,23090,21462,-10584,-56,17,-2,-1.028364,2.363162,2.000297
7344370,23248,21474,-10700,-16,0,-2,-1.028082,2.363480,1.999784
7359996,23338,21568,-10740,18,6,6,-1.028301,2.363603,2.000253
7375621,23292,21564,-10660,11,28,3,-1.028884,2.363642,2.001444
7391248,23160,21596,-10604,-22,29,-8,-1.028845,2.363631,2.001653
7406875,23090,21618,-10622,-20,22,-1,-1.028643,2.363826,2.001591
7422502,23116,21650,-10698,3,17,12,-1.028584,2.364042,2.001664
7438128,23254,21732,-10760,7,15,12,-1.028845,2.364009,2.002101
7453755,23348,21610,-10700,-22,18,2,-1.029025,2.364120,2.002779
7469380,23294,21550,-10632,-43,31,-5,-1.029093,2.364155,2.002699
7485007,23120,21534,-10622,-30,36,-1,-1.028689,2.364167,2.002126
7500634,23060,21578,-10522,-4,31,8,-1.028614,2.364123,2.001852
7516261,23130,21644,-10684,-7,16,9,-1.028575,2.364111,2.002060
7531887,23208,21670,-10732,-27,16,4,-1.028748,2.364272,2.002442
7547514,23248,21600,-10772,-36,24,5,-1.028704,2.364368,2.002415
7563140,23204,21542,-10702,-40,23,9,-1.028631,2.364442,2.002258
7578766,23214,21406,-10712,-33,23,3,-1.028601,2.364360,2.002071
7594392,23248,21476,-10640,-8,27,-3,-1.028714,2.364357,2.002078
7610019,23128,21618,-10656,15,24,-1,-1.028788,2.364342,2.002293
7625646,23146,21690,-10708,7,20,4,-1.028950,2.364514,2.003012
7641271,23108,21574,-10690,-26,12,-1,-1.028898,2.364739,2.003439
7656897,23076,21476,-10636,-29,11,2,-1.028810,2.364932,2.003383
7672524,23168,21524,-10742,4,11,9,-1.028909,2.365107,2.003550
7688149,23206,21634,-10680,24,12,12,-1.029170,2.365075,2.003987
7703776,23280,21774,-10650,5,16,11,-1.029749,2.365116,2.005177
7719401,23252,21714,-10794,-39,27,7,-1.029868,2.365064,2.005479
7735027,23134,21666,-10726,-72,34,2,-1.029646,2.365048,2.004774
7750654,23042,21538,-10750,-69,33,5,-1.029172,2.365134,2.004045
7766280,23120,21470,-10632,-36,12,16,-1.029032,2.365034,2.003160
7781907,23222,21528,-10740,-17,6,13,-1.029193,2.365053,2.003312
7797532,23322,21568,-10656,-18,20,9,-1.029380,2.365036,2.003534
7813159,23196,21632,-10740,-26,38,9,-1.029582,2.364840,2.003597
7828784,23084,21656,-10642,-39,38,7,-1.029692,2.364719,2.003486
7844411,23038,21584,-10678,-39,20,9,-1.029401,2.364669,2.002861
7860037,23130,21538,-10702,-26,7,15,-1.029261,2.364708,2.002785
7875664,23258,21488,-10722,-11,4,11,-1.029705,2.364767,2.003207
7891290,23352,21554,-10710,0,14,8,-1.030154,2.364718,2.003867
7906917,23232,21574,-10638,-19,28,5,-1.030415,2.364686,2.004304
7922544,23162,21562,-10586,-24,28,-1,-1.030228,2.364704,2.004082
7938170,23136,21620,-10644,-3,22,0,-1.030228,2.364704,2.004082
7953797,23078,21664,-10700,-5,20,8,-1.030286,2.364808,2.004397
7969424,23244,21570,-10640,-23,11,7,-1.030316,2.364890,2.004585
7985051,23300,21566,-10652,-24,17,3,-1.030319,2.365008,2.004703
8000677,23246,21594,-10636,-11,31,4,-1.030319,2.365008,2.004703
8016304,23216,21714,-10652,-13,35,16,-1.030361,2.364853,2.004672
8031930,23130,21624,-10778,-46,24,16,-1.030488,2.364613,2.004460
8047556,23204,21526,-10784,-61,26,4,-1.030459,2.364590,2.004332
8063183,23208,21486,-10676,-53,34,10,-1.030208,2.364552,2.003499
8078810,23090,21458,-10684,-35,37,22,-1.030104,2.364484,2.003096
8094435,23040,21520,-10636,-28,32,23,-1.030289,2.364028,2.002811
8110061,23156,21574,-10700,-22,20,15,-1.030491,2.363833,2.002874
8125688,23284,21610,-10750,-24,16,13,-1.030492,2.363892,2.002933
8141315,23448,21548,-10724,-22,38,11,-1.030926,2.363583,2.003246
8156942,23224,21588,-10776,-43,69,17,-1.030796,2.363326,2.002892
8172569,23050,21552,-10838,-70,64,22,-1.030387,2.362782,2.001693
8188196,23086,21486,-10812,-77,49,14,-1.030153,2.362516,2.000995
8203821,23142,21468,-10740,-61,45,17,-1.029836,2.362256,1.999725
8219448,23200,21468,-10514,-17,47,27,-1.029775,2.362092,1.999349
8235074,23204,21620,-10558,10,37,39,-1.030153,2.361512,1.999522
8250701,23304,21722,-10678,-9,37,49,-1.030518,2.361109,1.999855
8266326,23326,21782,-10620,-31,52,38,-1.031165,2.360367,2.000010
8281953,23302,22246,-10564,-50,104,5,-1.030730,2.359694,1.998914
8297579,23236,22372,-10526,-121,135,5,-1.029916,2.359544,1.997584
8313206,23102,21992,-10638,-221,119,36,-1.027263,2.359016,1.992506
8328832,23240,21428,-10636,-253,79,56,-1.026281,2.358561,1.989657
8344458,23390,21166,-10716,-232,76,41,-1.025233,2.357298,1.984738
8360084,23526,21254,-10686,-192,108,-3,-1.024698,2.356673,1.982445
8375711,23382,21594,-10526,-172,129,-24,-1.022888,2.356095,1.978042
8391338,23300,21826,-10516,-195,116,-2,-1.020370,2.355824,1.973183
8406963,23090,21494,-10240,-220,105,59,-1.019308,2.355429,1.970591
8422590,22972,21226,-10208,-150,100,74,-1.018454,2.353868,1.966131
8438217,22918,21336,-10220,-63,76,46,-1.018493,2.352975,1.964963
8453844,23002,21484,-10218,-60,31,26,-1.018795,2.352108,1.964274
8469469,23282,21624,-10228,-81,-8,36,-1.019013,2.352096,1.964290
8485094,23536,21622,-10140,-96,4,51,-1.019866,2.351976,1.964525
8500720,23468,21632,-10204,-67,42,53,-1.020886,2.350985,1.964272
8516346,23244,21618,-10208,-95,35,50,-1.021012,2.350684,1.964012
8531973,23120,21248,-10230,-150,-16,62,-1.021273,2.350330,1.963487
8547600,23084,21134,-9804,-123,-37,61,-1.022262,2.349790,1.962792
8563226,23202,21376,-9658,-2,-39,57,-1.024036,2.349235,1.963400
8578852,23316,21862,-10056,85,-19,63,-1.025029,2.348963,1.964723
8594479,23514,22048,-10536,-12,-28,84,-1.027659,2.348413,1.968278
8610106,23668,21832,-10732,-139,-48,78,-1.028693,2.348282,1.969289
8625733,23868,21738,-10574,-162,-37,56,-1.030564,2.347892,1.969743
8641359,23818,21768,-10286,-96,35,65,-1.031236,2.347619,1.969595
8656985,23526,21920,-10096,-79,86,92,-1.032077,2.346295,1.968803
8672612,23286,21694,-10188,-197,52,110,-1.032490,2.344445,1.966572
8688237,23396,21690,-10214,-276,28,91,-1.032817,2.343574,1.965139
8703863,23384,21734,-10052,-342,22,57,-1.032319,2.342604,1.960575
8719490,23356,21398,-9486,-291,10,69,-1.031767,2.342356,1.957759
8735117,23366,21214,-9382,-144,-21,97,-1.031539,2.341427,1.953829
8750743,23590,21260,-9762,-104,-41,101,-1.032445,2.340621,1.953541
8766369,23950,21370,-10110,-177,-38,59,-1.034789,2.339514,1.954062
8781995,24032,21824,-10082,-243,3,19,-1.035262,2.339261,1.953485
8797621,23658,21818,-9314,-271,43,61,-1.034315,2.339297,1.949818
8813247,23428,21454,-9030,-157,20,116,-1.033558,2.338193,1.945313
8828873,23488,21432,-9372,-122,-27,107,-1.034364,2.337163,1.944577
8844499,23662,21442,-9760,-281,-46,34,-1.035864,2.336111,1.943856
8860125,23718,21394,-9580,-422,-20,-9,-1.035661,2.336239,1.942019
8875752,23660,21260,-8918,-338,-11,26,-1.033203,2.336871,1.935264
8891377,23432,21446,-8442,-84,-49,112,-1.032813,2.336688,1.932990
8907002,23312,21376,-8418,70,-80,176,-1.036023,2.334925,1.934572
8922629,23712,21130,-9284,-43,-118,95,-1.041114,2.333011,1.939353
8938255,24188,21322,-10100,-184,-102,14,-1.042907,2.332814,1.940884
8953881,24448,21522,-10042,-234,-64,4,-1.044071,2.333600,1.940911
8969507,24480,21788,-9546,-86,-21,64,-1.044478,2.333732,1.940372
8985134,24424,22240,-9294,53,37,126,-1.046571,2.332621,1.941528
9000761,24272,22882,-9362,-83,99,117,-1.047919,2.331450,1.942477
9016388,23980,22900,-9200,-461,151,80,-1.047237,2.329468,1.938574
9032014,23658,22026,-8756,-667,150,58,-1.044497,2.328746,1.931970
9047640,23714,21194,-8794,-617,112,23,-1.037835,2.327571,1.916231
9063266,24000,21406,-9010,-617,108,12,-1.031898,2.326932,1.902527
9078892,24056,21496,-8744,-717,124,40,-1.029067,2.326522,1.895775
9094518,23856,21226,-8316,-722,113,76,-1.022793,2.325122,1.880321
9110144,23930,21174,-7970,-664,84,86,-1.020054,2.324190,1.872989
9125771,23966,20904,-7822,-657,74,76,-1.015508,2.322057,1.859620
9141398,24016,20826,-7738,-620,109,53,-1.013220,2.321051,1.853169
9157025,23930,20926,-7506,-519,131,52,-1.008263,2.319162,1.840653
9172652,23744,20982,-7212,-462,101,76,-1.006019,2.318200,1.835135
9188278,23904,20878,-6996,-450,48,77,-1.002648,2.316222,1.825650
9203905,24334,20754,-7098,-452,21,73,-1.000273,2.314368,1.817646
9219531,24646,20670,-7320,-436,39,86,-0.999532,2.313453,1.814115
9235158,24710,20712,-7268,-372,81,114,-0.998623,2.310873,1.807599
9250785,24386,20994,-6796,-289,106,137,-0.998542,2.309118,1.804661
9266411,24252,21102,-6538,-249,101,147,-0.998793,2.305548,1.799724
9282037,24310,21388,-6928,-250,143,118,-0.998656,2.303845,1.797334
9297664,24262,21870,-6894,-348,189,71,-0.997313,2.301158,1.791558
9313291,23748,21704,-6294,-569,160,65,-0.991720,2.299918,1.780961
9328917,23792,20916,-6204,-641,107,50,-0.988213,2.299388,1.774423
9344542,24008,20418,-6258,-627,78,28,-0.981512,2.298481,1.761346
9360169,24174,19910,-6156,-552,74,14,-0.978539,2.297996,1.755505
9375798,24098,19796,-5970,-433,64,27,-0.974245,2.296897,1.746167
9391425,24038,20026,-5716,-319,54,65,-0.973043,2.296166,1.742955
9407051,23918,20332,-5726,-235,45,100,-0.972537,2.294034,1.738799
9422677,24084,20636,-5940,-198,12,86,-0.973078,2.292928,1.737725
9438303,24394,21082,-5876,-190,-1,60,-0.974811,2.291172,1.737011
9453928,24256,20940,-5434,-265,11,65,-0.975906,2.290137,1.736250
9469555,24194,20668,-5418,-308,40,49,-0.975585,2.289596,1.734713
9485181,24132,20618,-5712,-304,47,26,-0.974149,2.288567,1.730371
9500808,24310,20610,-5868,-323,38,17,-0.973114,2.288323,1.728223
9516435,24430,20824,-5702,-320,24,24,-0.971462,2.287937,1.724307
9532060,24324,20824,-5154,-309,17,40,-0.970712,2.287630,1.722414
9547686,24100,20438,-4674,-331,16,30,-0.969263,2.286943,1.718558
9563313,24162,19962,-4740,-346,0,-6,-0.966681,2.286455,1.713279
9578938,24342,19882,-5060,-279,-7,-5,-0.965461,2.286423,1.711119
9594563,24356,20080,-5282,-173,1,20,-0.965103,2.285833,1.708896
9610189,24250,20072,-5122,-100,5,38,-0.965878,2.285322,1.708990
9625815,24184,20246,-4832,-55,-20,41,-0.968558,2.284205,1.710604
9641441,24250,20422,-4980,-74,-24,32,-0.970180,2.283745,1.711976
9657068,24402,20616,-5192,-120,12,13,-0.972354,2.283174,1.713578
9672695,24346,20850,-5078,-133,31,17,-0.972718,2.283008,1.713580
9688322,24126,20674,-4822,-156,31,19,-0.972855,2.282838,1.713086
9703949,24086,20494,-4752,-215,16,4,-0.972381,2.282557,1.711644
9719576,24188,20186,-4876,-248,2,3,-0.971655,2.282584,1.710410
9735203,24354,19856,-4860,-176,-16,12,-0.970865,2.282471,1.708375
9750828,24418,19802,-4736,-80,-21,13,-0.971497,2.282139,1.708447
9766455,24376,19948,-4698,-50,-12,19,-0.974101,2.281356,1.710331
9782082,24298,20150,-4570,-41,-4,30,-0.975506,2.280895,1.711384
9797707,24196,20264,-4628,-32,-14,20,-0.977984,2.280100,1.713235
9813333,24456,20508,-4862,-2,-42,13,0.761465,-0.406048,-1.522980
9828958,24632,20688,-4920,-34,-42,15,-0.982441,2.279720,1.717903
9844585,24526,20556,-4696,-107,-16,1,-0.984988,2.279642,1.720410
9860211,24294,20316,-4510,-144,0,-21,-0.985127,2.279726,1.720453
9875838,24304,20016,-4570,-112,-13,-25,-0.984577,2.280128,1.719621
9891464,24490,19972,-4900,-45,-16,-13,-0.984910,2.280202,1.719887
9907091,24658,20344,-5066,-1,26,2,-0.986944,2.280067,1.721903
9922717,24304,20680,-4810,-10,55,16,-0.987986,2.279845,1.722960
9938342,24030,20614,-4424,-54,25,6,-0.988925,2.279500,1.723723
9953969,24406,20438,-4676,-88,-30,-22,-0.989103,2.280015,1.724126
9969595,24726,20302,-4826,-113,-5,-14,-0.989103,2.280015,1.724126
9985222,24584,20064,-4738,-138,40,0,-3.141578,3.141577,1.749172
10000848,24194,19966,-4530,-134,49,1,-0.989577,2.279925,1.723547
10016474,24066,20040,-4524,-83,17,7,-0.988830,2.279468,1.721865
10032101,24312,20348,-4636,-47,-17,13,-0.989381,2.279274,1.722185
10047728,24470,20546,-4656,-89,-30,9,-0.991130,2.279096,1.723688
10063354,24564,20486,-4396,-173,-17,-10,-0.991540,2.279149,1.723974
10078980,24480,20212,-4356,-243,20,-22,-0.990516,2.279334,1.722141
10094607,24350,20088,-4512,-235,27,-9,-0.988081,2.279488,1.718370
10110233,24336,20004,-4472,-198,20,-1,-0.987079,2.279296,1.716635
10125859,24188,19946,-4286,-136,0,1,-0.986105,2.279081,1.714562
10141485,24354,19934,-4192,-84,-27,-2,-0.986265,2.278924,1.714348
10157111,24580,20034,-4364,-77,-33,-3,-0.987533,2.278722,1.715025
10172737,24634,20114,-4442,-94,-2,7,-0.988489,2.278641,1.715798
10188364,24404,20238,-4374,-109,32,15,-0.989465,2.277997,1.715786
10203990,24024,20240,-4036,-96,5,18,-0.989184,2.277446,1.714681
10219616,24186,19996,-3962,-66,-56,10,-0.989459,2.277350,1.714761
10235241,24532,19882,-4020,-48,-89,1,-0.991532,2.277293,1.716432
10250868,24770,19740,-4230,-64,-53,-7,-0.993273,2.277163,1.717835
10266495,24724,19916,-4548,-93,17,-10,-0.995217,2.276749,1.719220
10282122,24346,19966,-4622,-93,63,1,-0.995088,2.276538,1.718849
10297747,24012,20050,-4522,-27,49,21,-0.995104,2.275971,1.718069
10313373,23994,20278,-4372,41,-7,32,-0.995786,2.275709,1.718684
10328999,24362,20370,-4186,-4,-48,7,-0.998841,2.275345,1.721827
10344625,24532,20112,-3902,-76,-40,-15,-1.001023,2.275471,1.724047
10360251,24554,19776,-3798,-74,-27,-21,-1.001297,2.275640,1.724296
10375878,24658,19426,-4202,0,-13,-11,-1.001858,2.275582,1.724625
10391504,24748,19610,-4666,109,5,14,-1.003021,2.275351,1.725715
10407131,24652,20126,-4652,161,31,33,-1.007622,2.274207,1.730323
10422756,24436,20680,-4460,108,43,32,-1.009659,2.273643,1.732616
10438382,24236,20858,-4310,15,33,19,-1.012037,2.273109,1.735253
10454008,24414,20594,-4444,-73,26,4,-1.012143,2.273172,1.735545
10469635,24472,20308,-4468,-111,29,-6,-1.011624,2.273386,1.734966
10485262,24514,20094,-4308,-131,47,-4,-1.010580,2.273418,1.733289
10500888,24474,19878,-4036,-140,57,-3,-1.009682,2.273336,1.732008
10516514,24340,19700,-4136,-115,51,-5,-1.007680,2.272918,1.729056
10532141,24344,19626,-4144,-57,32,2,-1.007071,2.272760,1.727934
10547768,24468,19790,-4342,8,27,11,-1.007512,2.272161,1.727893
10563395,24442,20064,-4208,41,29,16,-1.008258,2.271812,1.728533
10579021,24200,20148,-4022,41,14,16,-1.010146,2.271295,1.730430
10594647,24334,20124,-4242,39,-9,9,-1.011886,2.271026,1.732290
10610273,24640,20122,-4612,27,-9,9,-1.012774,2.270960,1.733497
10625898,24606,20254,-4540,-1,23,10,-1.015014,2.270744,1.735746
10641524,24348,20372,-4202,-28,34,19,-1.015610,2.270576,1.736349
10657151,24244,20254,-4162,-43,10,19,-1.016017,2.270234,1.736280
10672777,24464,20186,-4426,-37,-23,15,-1.016235,2.270100,1.736345
10688403,24690,20176,-4522,-45,-13,10,-1.017613,2.269875,1.737511
10704030,24656,20128,-4404,-50,26,5,-1.018267,2.269815,1.737943
10719656,24412,20184,-4202,-56,42,4,-1.018451,2.269528,1.737737
10735283,24346,19994,-3988,-58,25,6,-1.017803,2.269327,1.736787
10750909,24434,19926,-4156,-25,6,3,-1.017494,2.269270,1.736269
10766534,24476,19972,-4240,-1,17,-5,-1.018193,2.269100,1.736809
10782161,24330,19964,-4252,9,38,-7,-1.018576,2.269135,1.737349
10797787,24224,20102,-4252,16,40,1,-1.018950,2.269035,1.737886
10813414,24186,20142,-4364,11,27,10,-1.019125,2.269008,1.738199
10829040,24284,20144,-4396,9,6,9,-1.019980,2.268940,1.739212
10844666,24556,20092,-4376,1,-15,10,-1.021646,2.268903,1.741060
10860292,24716,20148,-4314,0,-2,13,-1.022544,2.268728,1.741827
10875918,24578,20190,-4236,-29,23,10,-1.023739,2.268464,1.743038
10891543,24430,20134,-4194,-51,36,10,-1.023705,2.268311,1.742768
10907169,24414,20050,-4396,-49,26,14,-1.023505,2.267920,1.742023
10922797,24394,19966,-4320,-21,16,14,-1.023678,2.267828,1.741980
10938423,24402,20006,-4208,9,7,14,-1.024417,2.267550,1.742630
10954049,24560,20166,-4418,7,12,12,-1.025011,2.267385,1.743236
10969674,24536,20346,-4404,-1,47,10,-1.026239,2.266957,1.744274
10985300,24368,20286,-4246,-12,56,5,-1.026300,2.266799,1.744294
11000927,24242,20110,-4190,-39,33,-4,-1.025720,2.266834,1.743882
11016552,24266,19886,-4324,-40,15,-2,-1.025203,2.266979,1.743298
11032178,24490,19820,-4486,-11,18,4,-1.025134,2.267069,1.743276
11047804,24440,19994,-4450,41,27,9,-1.026072,2.266785,1.744154
11063431,24392,20228,-4358,58,23,8,-1.026986,2.266629,1.745191
11079058,24462,20304,-4392,41,7,8,-1.028326,2.266614,1.746952
11094685,24562,20178,-4362,3,19,5,-1.029618,2.266563,1.748531
11110312,24592,20144,-4472,-1,34,2,-1.029717,2.266627,1.748823
11125938,24452,20220,-4474,3,45,2,-1.029952,2.266510,1.749158
11141565,24426,20312,-4462,1,39,5,-1.029844,2.266512,1.749221
11157192,24430,20282,-4348,-16,26,3,-1.030031,2.266437,1.749447
11172819,24496,20168,-4368,-31,19,-4,-1.029818,2.266638,1.749380
11188446,24478,20032,-4444,-28,27,1,-1.029553,2.266734,1.749132
11204073,24388,19982,-4466,1,45,2,-1.029719,2.266574,1.749089
11219699,24316,20210,-4428,40,34,0,-1.029846,2.266459,1.749487
11235325,24490,20338,-4622,35,16,6,-1.030698,2.266478,1.750772
11250951,24528,20326,-4508,13,27,5,-1.031119,2.266620,1.751495
11266577,24372,20190,-4494,-2,44,5,-1.031606,2.266671,1.752240
11282203,24310,20096,-4510,3,43,0,-1.031369,2.266588,1.752098
11297829,24290,20144,-4528,7,34,-3,-1.031309,2.266694,1.752344
11313455,24294,20300,-4510,11,29,6,-1.031405,2.266758,1.752635
11329082,24332,20298,-4406,-13,27,11,-1.031889,2.266809,1.753380
11344708,24460,20200,-4474,-22,15,7,-1.031988,2.266739,1.753315
11360335,24620,20224,-4626,1,11,3,-1.032320,2.266886,1.753748
11375961,24522,20176,-4534,8,31,-1,-1.032929,2.266876,1.754624
11391588,24350,20174,-4482,11,42,4,-1.033091,2.266849,1.754937
11407213,24244,20222,-4574,3,34,8,-1.033193,2.266794,1.755141
11422840,24340,20122,-4698,21,10,9,-1.033287,2.266858,1.755432
11438466,24470,20172,-4828,45,2,12,-1.034775,2.266823,1.757152
11454093,24500,20402,-4820,38,18,11,-1.035571,2.266807,1.758255
11469719,24386,20512,-4686,9,29,13,-1.036813,2.266689,1.759834
11485346,24292,20454,-4502,-47,22,6,-1.036838,2.266843,1.760102
11500972,24334,20248,-4484,-70,11,-2,-1.036515,2.267029,1.759831
11516599,24458,20106,-4686,-58,18,-1,-1.035874,2.267268,1.758933
11532226,24506,20002,-4710,-23,26,5,-1.035715,2.267295,1.758620
11547852,24394,20168,-4610,-5,33,13,-1.036100,2.267137,1.759001
11563477,24208,20316,-4388,-1,29,14,-1.036359,2.267041,1.759250
11579104,24178,20244,-4428,-10,8,8,-1.036345,2.266971,1.759250
11594730,24430,20222,-4564,-9,-12,0,-1.036762,2.267302,1.760059
11610357,24620,20252,-4776,-3,4,14,-1.037364,2.267424,1.760739
11625984,24584,20304,-4716,0,32,18,-1.038548,2.267118,1.761869
11641611,24350,20390,-4424,-20,43,15,-1.038905,2.266953,1.762056
11657236,24190,20390,-4426,-46,25,9,-1.038303,2.266830,1.761375
11672862,24376,20316,-4600,-57,4,-1,-1.037934,2.267057,1.760993
11688489,24538,20176,-4832,-53,9,-4,-1.037592,2.267424,1.760613
11704115,24598,20070,-4806,-29,32,5,-1.037706,2.267424,1.760549
11719742,24438,20202,-4788,1,46,17,-1.037659,2.267188,1.760563
11735369,24272,20394,-4376,-23,30,16,-1.037983,2.267002,1.760835
11750995,24320,20394,-4362,-49,13,11,-1.037877,2.266868,1.760544
11766621,24496,20306,-4640,-63,9,2,-1.037269,2.266996,1.759755
11782247,24612,20278,-4850,-56,18,2,-1.037024,2.267162,1.759506
11797874,24502,20168,-4782,-47,36,7,-1.037171,2.267182,1.759356
11813501,24310,20160,-4444,-44,45,9,-1.036979,2.267188,1.759129
11829128,24224,20036,-4438,-36,29,7,-1.036380,2.266932,1.758094
11844755,24380,20172,-4538,-8,1,9,-1.036360,2.266981,1.758180
11860382,24506,20208,-4500,11,4,5,-1.037032,2.267013,1.758884
11876008,24436,20190,-4506,6,9,5,-1.037796,2.267109,1.759878
11891635,24416,20156,-4670,3,11,9,-1.038161,2.267147,1.760418
11907260,24462,20220,-4768,33,12,15,-1.039103,2.267022,1.761567
11922885,24470,20458,-4720,40,17,14,-1.039825,2.266895,1.762293
11938511,24372,20564,-4542,-1,24,9,-1.040832,2.267031,1.763890
11954138,24282,20430,-4556,-55,16,4,-1.040686,2.267141,1.763844
11969764,24382,20120,-4546,-71,5,2,-1.039949,2.267449,1.763009
11985391,24464,20060,-4706,-39,2,0,-1.039873,2.267455,1.762718
12001016,24502,20172,-4656,-7,24,5,-1.040094,2.267589,1.762945
12016642,24402,20182,-4614,7,27,12,-1.040624,2.267468,1.763444
12032269,24338,20248,-4700,18,10,15,-1.040881,2.267372,1.763694
12047896,24402,20286,-4590,20,2,10,-1.041945,2.267334,1.765047
12063522,24472,20306,-4510,9,5,7,-1.042532,2.267388,1.765727
12079148,24492,20308,-4796,-4,9,4,-1.043064,2.267472,1.766579
12094773,24580,20386,-4916,-5,20,9,-1.043586,2.267617,1.767236
12110399,24474,20448,-4718,-7,27,10,-1.043822,2.267571,1.767572
12126025,24348,20310,-4608,-23,22,3,-1.043674,2.267681,1.767526
12141651,24436,20322,-4728,-43,17,4,-1.043609,2.267771,1.767502
12157276,24466,20258,-4778,-52,25,6,-1.043265,2.267802,1.766962
12172903,24372,20218,-4702,-36,33,8,-1.043009,2.267898,1.766712
12188530,24328,20306,-4758,-25,29,5,-1.042648,2.267859,1.766173
12204157,24384,20344,-4698,-33,18,11,-1.042648,2.267859,1.766173
12219784,24432,20342,-4542,-39,14,14,-1.042764,2.267859,1.766109
12235411,24460,20192,-4556,-34,6,5,-1.042555,2.267914,1.765968
12251038,24574,20134,-4744,-16,19,7,-1.042671,2.267915,1.765905
12266665,24490,20162,-4850,-9,39,9,-1.043010,2.267799,1.766178
12282291,24320,20336,-4828,3,39,14,-1.043141,2.267618,1.766225
12297917,24274,20490,-4630,2,24,16,-1.043280,2.267522,1.766538
12313544,24332,20458,-4608,-19,2,14,-1.043451,2.267567,1.766851
12329170,24468,20362,-4686,-49,3,6,-1.043628,2.267743,1.766967
12344797,24656,20218,-4940,-67,20,1,0.091532,3.125184,-1.795730
12360422,24518,20204,-4822,-43,42,6,-1.043189,2.267829,1.766223
12376049,24310,20352,-4680,-28,42,15,-1.042911,2.267649,1.765621
12391674,24284,20352,-4420,-41,18,12,-1.042684,2.267634,1.765481
12407301,24404,20272,-4530,-27,-6,3,-1.042271,2.267756,1.764917
12422926,24586,20146,-4796,-20,2,1,-1.042478,2.267820,1.765144
12438553,24590,20110,-4862,-24,27,3,-1.042893,2.267951,1.765596
12454179,24460,20186,-4876,-7,41,12,-1.043106,2.267750,1.765666
12469805,24246,20490,-4702,13,38,18,-1.043393,2.267544,1.766026
12485431,24200,20522,-4458,-3,16,15,-1.043503,2.267559,1.766230
12501057,24454,20344,-4600,-62,-5,0,-1.043835,2.267709,1.766659
12516682,24632,20176,-4744,-81,12,-4,-1.043242,2.268171,1.766024
12532308,24578,20092,-4788,-51,34,1,-1.043041,2.268091,1.765531
12547935,24460,20168,-4846,-9,42,10,-1.042777,2.267981,1.764929
12563561,24312,20256,-4660,3,37,14,-1.042808,2.267871,1.765039
12579188,24234,20360,-4660,-6,15,14,-1.043097,2.267665,1.765399
12594815,24420,20400,-4760,-32,8,8,-1.043157,2.267840,1.765579
12610440,24528,20302,-4660,-39,18,8,-1.043254,2.267891,1.765601
12626066,24430,20332,-4624,-34,26,6,-1.043289,2.267911,1.765514
12641692,24414,20218,-4578,-36,25,0,-1.042804,2.267991,1.765124
12657318,24510,20134,-4680,-30,15,3,-1.042600,2.268057,1.764701
12672945,24466,20142,-4856,-4,20,3,-1.042581,2.268107,1.764787
12688571,24368,20232,-4806,20,34,11,-1.043305,2.267981,1.765514
12704198,24276,20390,-4658,25,29,17,-1.043527,2.267865,1.765851
12719824,24400,20546,-4654,9,10,15,-1.044192,2.267915,1.766821
12735450,24580,20502,-4624,-21,9,7,-1.044364,2.267960,1.767133
12751076,24634,20308,-4762,-47,27,1,-1.044506,2.268116,1.767335
12766703,24440,20170,-4826,-55,48,4,-1.043760,2.268086,1.766342
12782328,24274,20250,-4664,-29,46,9,-1.043461,2.267956,1.765827
12797953,24282,20362,-4566,-14,29,8,-1.042980,2.267916,1.765351
12813579,24346,20348,-4626,-15,18,1,-1.042641,2.268031,1.765078
12829205,24396,20266,-4716,-21,26,-3,-1.042554,2.268317,1.765211
12844832,24448,20160,-4826,-20,34,-1,-1.042488,2.268407,1.765188
12860458,24394,20180,-4754,-12,26,6,-1.042407,2.268427,1.765165
12876084,24380,20194,-4658,2,17,16,-1.042680,2.268402,1.765415
12891710,24490,20362,-4738,13,9,12,-1.043176,2.268261,1.766001
12907337,24494,20424,-4874,8,18,9,-1.044116,2.268141,1.767149
12922964,24462,20406,-4866,-19,38,11,-1.044432,2.268221,1.767579
12938591,24288,20400,-4768,-49,42,14,-1.044159,2.268246,1.767329
12954217,24282,20304,-4724,-63,30,8,-1.043796,2.268206,1.766790
12969843,24396,20294,-4760,-50,5,6,-1.042965,2.268316,1.765859
12985469,24618,20266,-4804,-33,1,9,-1.043308,2.268332,1.765936
13001096,24574,20218,-4810,-30,27,6,-1.043680,2.268357,1.766208
13016723,24400,20292,-4714,-17,49,10,-1.043411,2.268116,1.765803
13032349,24290,20356,-4732,-9,31,11,-1.043431,2.268066,1.765717
13047976,24382,20368,-4706,-13,6,10,-1.043522,2.268131,1.766007
13063603,24480,20320,-4692,-29,5,7,-1.043729,2.268197,1.766232
13079230,24538,20320,-4768,-40,19,10,-1.043953,2.268332,1.766457
13094857,24468,20310,-4808,-37,34,8,-1.043863,2.268267,1.766168
13110484,24302,20312,-4794,-27,29,6,-1.043509,2.268167,1.765824
13126111,24356,20324,-4784,-37,20,4,-1.043443,2.268257,1.765801
13141737,24494,20306,-4732,-38,14,12,-1.043447,2.268388,1.765604
13157363,24480,20352,-4654,-15,26,6,-1.043611,2.268348,1.765650
13172989,24342,20410,-4610,-9,34,7,-1.043576,2.268327,1.765736
13188615,24352,20360,-4676,-37,27,4,-1.043154,2.268462,1.765440
13204241,24342,20186,-4776,-64,36,1,-1.042895,2.268558,1.765190
13219868,24296,20110,-4814,-45,41,5,-1.042097,2.268568,1.764088
13235495,24358,20168,-4826,-9,15,12,-1.041904,2.268573,1.763862
13251122,24532,20318,-4784,19,-6,17,-1.042986,2.268403,1.764861
13266749,24598,20426,-4720,11,14,13,-1.043854,2.268433,1.765790
13282375,24526,20554,-4658,-20,40,2,-1.044798,2.268313,1.766938
13298002,24420,20368,-4656,-41,44,-1,-1.043875,2.268458,1.766251
13313628,24386,20150,-4718,-54,32,-1,-1.043362,2.268528,1.765666
13329254,24428,20120,-4822,-42,26,5,-1.042738,2.268583,1.764877
13344879,24438,20218,-4728,4,21,4,-1.042773,2.268603,1.764790
13360505,24486,20420,-4728,31,13,2,-1.043230,2.268708,1.765619
13376132,24536,20340,-4842,5,20,3,-1.043788,2.268744,1.766384
13391759,24450,20314,-4822,-25,44,8,-1.044071,2.268804,1.766900
13407386,24154,20370,-4752,-17,51,4,-1.043690,2.268693,1.766363
13423012,24218,20432,-4656,-21,25,6,-1.043269,2.268828,1.766067
13438638,24396,20408,-4820,-33,3,5,-1.043036,2.269079,1.766082
13454264,24614,20250,-4948,-53,15,5,-1.043279,2.269165,1.766221
13469891,24538,20232,-4786,-51,38,12,-1.043250,2.269130,1.766040
13485517,24348,20262,-4636,-31,44,13,-1.043052,2.268929,1.765462
13501143,24354,20262,-4548,-14,19,6,-1.042717,2.268779,1.765033
13516769,24558,20212,-4846,2,1,4,-1.042651,2.268869,1.765010
13532396,24536,20330,-4990,7,34,5,-1.043691,2.268944,1.766250
13548022,24350,20414,-4732,10,41,7,-1.044005,2.268894,1.766876
13563648,24230,20476,-4638,5,12,-1,-1.044161,2.268869,1.767189
13579274,24422,20308,-4698,-5,-6,-8,-1.044372,2.269285,1.767836
13594900,24530,20260,-4992,-20,15,-11,-1.044640,2.269527,1.768240
13610527,24432,20326,-5014,-24,46,-3,-1.044760,2.269878,1.768598
13626153,24208,20372,-4832,-12,44,1,-1.044451,2.269882,1.768435
13641780,24282,20406,-4618,2,6,7,-1.044220,2.270012,1.768366
13657407,24596,20298,-4816,-4,-8,6,0.105508,3.122652,-1.797035
13673034,24654,20300,-4966,-21,29,-1,-1.045398,2.270246,1.769805
13688661,24298,20356,-4912,-33,74,-1,-1.045125,2.270270,1.769556
13704286,24106,20380,-4846,-31,65,7,-1.044370,2.270253,1.768834
13719913,24122,20492,-4808,-39,16,7,-1.043651,2.270257,1.768024
13735539,24398,20344,-4666,-44,-9,-1,-1.043520,2.270438,1.767976
13751165,24578,20314,-4786,-30,2,-6,-1.043695,2.270735,1.768174
13766798,24528,20142,-4892,-28,27,4,-1.043790,2.270931,1.768266
13782425,24394,20118,-4914,27,35,6,-1.043903,2.270800,1.768399
13798050,24304,20416,-4874,59,25,12,-1.044763,2.270580,1.769439
13813676,24244,20582,-4736,60,21,13,-1.045535,2.270501,1.770540
13829303,24382,20602,-4796,49,13,7,-1.046369,2.270682,1.772086
13844928,24476,20486,-5066,15,17,-5,-1.046770,2.270828,1.772803
13860554,24480,20458,-5162,-25,55,-8,-1.047126,2.271220,1.773760
13876180,24258,20360,-4936,-25,78,-4,-1.046536,2.271308,1.773154
13891806,24020,20332,-4798,-35,70,-3,-1.045056,2.271429,1.771975
13907433,24014,20360,-4612,-76,28,11,-1.044342,2.271433,1.771167
13923059,24364,20196,-4618,-38,-22,-5,-1.042964,2.271653,1.769545
13938685,24832,20128,-4980,21,-28,-18,-1.043661,2.272097,1.770395
13954311,24994,20170,-5206,34,33,-11,-1.044399,2.272248,1.771467
13969938,24570,20136,-5002,43,85,3,-1.045504,2.271933,1.772757
13985564,24094,20412,-4904,56,84,8,-1.045413,2.271699,1.772850
14001190,23964,20722,-4854,53,33,8,-1.045158,2.271590,1.773164
14016817,24204,20794,-4786,33,-15,3,-1.045452,2.271805,1.773943
14032444,24624,20594,-5014,-4,-6,-14,-1.046168,2.272574,1.775588
14048069,24752,20320,-5162,-30,89,-23,-1.045902,2.273081,1.775563
14063696,24256,20348,-5192,-10,151,-12,-1.044802,2.273107,1.774573
14079322,23862,20506,-5004,7,120,-2,-1.042157,2.272889,1.772149
14094949,23870,20466,-4700,9,26,-13,-1.041369,2.272998,1.771587
14110576,24302,20128,-4670,14,-30,-29,-1.041041,2.273884,1.772157
14126203,24690,19978,-5136,47,-11,-21,-1.041491,2.274324,1.773134
14141829,24640,20030,-5470,95,70,-4,-1.043183,2.274553,1.775514
14157456,24114,20304,-5276,151,118,3,-1.043736,2.274223,1.776501
14173082,23884,20860,-5316,196,76,7,-1.044453,2.273977,1.778617
14188708,24222,21320,-5526,173,39,-1,-1.045999,2.274456,1.782420
14204335,24570,21386,-5548,77,46,-14,-1.046770,2.274930,1.784299
14219961,24660,21168,-5452,-53,100,-28,-1.046404,2.275858,1.785316
14235587,24472,20582,-5316,-145,171,-44,-1.044648,2.276226,1.783678
14251212,24134,20328,-5284,-139,230,-41,-1.038776,2.276762,1.777498
14266838,23844,20304,-5244,-88,233,-21,-1.035324,2.276738,1.773679
14282465,23714,20328,-5112,-51,178,-18,-1.030050,2.276679,1.768161
14298091,23996,20166,-5014,0,105,-32,-1.026872,2.277030,1.765200
14313717,24214,20140,-4986,37,101,-41,-1.025904,2.277285,1.764774
14329344,24166,20172,-4916,42,117,-29,-1.024606,2.277766,1.764344
14344970,23876,20182,-4834,9,125,-13,-1.023790,2.277792,1.763879
14360597,23736,19920,-4826,22,76,-12,-1.022193,2.277784,1.762592
14376223,23864,19932,-5164,168,28,-18,-1.022182,2.277796,1.762863
14391849,24012,20242,-5418,320,16,-14,-1.025219,2.278208,1.768021
14407476,24110,20540,-5526,314,17,-16,-1.027736,2.278472,1.772255
14423102,24014,20526,-5430,231,1,-17,-1.031995,2.279136,1.779999
14438728,24026,20512,-5642,220,-3,-16,-1.035419,2.279979,1.786351
14454353,23938,20646,-5812,239,11,-20,-1.037124,2.280413,1.789481
14469979,23886,20950,-5894,248,21,-23,-1.040266,2.281299,1.795781
14485604,23690,21016,-5798,223,10,-18,-1.041681,2.281863,1.798842
14501230,23762,20924,-5892,166,-12,-21,-1.044099,2.283172,1.804480
14516856,23924,20838,-5932,115,-23,-32,-1.045256,2.283872,1.806910
14532483,23928,20686,-5758,103,-9,-34,-1.046671,2.285388,1.810883
14548110,23714,20632,-5824,149,8,-29,-1.047137,2.286042,1.812412
14563737,23534,20670,-5698,184,-13,-32,-1.048647,2.287149,1.816188
14579363,23452,20230,-5744,191,-55,-32,-1.050507,2.288586,1.821025
14594989,23662,19912,-5948,281,-108,-33,-1.052294,2.289201,1.824251
14610615,24074,19950,-6346,398,-142,-31,-1.057831,2.290605,1.834016
14626240,24238,20160,-6582,503,-139,-21,-1.061753,2.291368,1.840611
14641866,24220,20448,-6582,590,-124,-7,-1.070841,2.292362,1.855896
14657492,24170,20814,-6618,673,-119,14,-1.075561,2.292836,1.864190
14673118,24096,21228,-6778,687,-124,21,-1.085126,2.293638,1.881678
14688745,24276,21532,-7044,616,-138,-9,-1.093997,2.295009,1.898802
14704371,24336,21552,-7132,533,-121,-35,-1.097723,2.295961,1.906590
14719998,24306,21426,-7356,468,-84,-40,-1.102957,2.298264,1.919225
14735624,24150,21402,-7632,426,-53,-44,-1.104766,2.299381,1.924465
14751250,23930,21394,-7822,384,-38,-51,-1.107511,2.301498,1.933529
14766876,23718,21534,-7716,358,-50,-50,-1.108832,2.302541,1.937635
14782502,23636,21484,-7584,327,-85,-52,-1.110545,2.304999,1.945122
14798128,23634,21102,-7612,326,-106,-47,-1.111422,2.306453,1.948796
14813755,23890,20818,-8130,417,-115,-43,-1.114030,2.308928,1.956829
14829382,24090,20844,-8664,482,-100,-32,-1.117981,2.311055,1.967296
14845008,24126,21016,-8952,525,-62,-4,-1.120317,2.312004,1.973382
14860635,23980,21320,-8930,533,-40,26,-1.125306,2.312908,1.985590
14876261,23954,21638,-8960,522,-38,31,-1.127650,2.313181,1.991533
14891888,23968,21888,-9022,473,-34,11,-1.131499,2.313937,2.002417
14907515,24150,22012,-9220,395,-27,-22,-1.132890,2.314516,2.007098
14923141,24414,21940,-9784,323,4,-46,-1.133876,2.316400,2.014011
14938768,24582,21972,-10246,205,105,-78,-1.132949,2.318136,2.017796
14954395,24214,22216,-9676,118,196,-88,-1.131496,2.318808,2.018022
14970021,23472,21668,-8838,83,247,-43,-1.126030,2.319721,2.014380
14985648,22890,21018,-8470,162,208,-2,-1.123117,2.319417,2.011833
15001275,22996,20872,-8798,272,100,-23,-1.119583,2.318805,2.009994
15016901,23592,21102,-9486,281,32,-70,-1.118923,2.319203,2.011175
15032528,24146,21236,-9730,228,39,-110,-1.117846,2.321131,2.014826
15048153,24504,21584,-9756,214,70,-120,-1.116771,2.322376,2.015891
15063778,24566,22318,-10042,137,173,-90,-1.113716,2.324432,2.016843
15079403,24202,22440,-9664,3,273,-68,-1.108762,2.325273,2.013767
15095029,23592,22098,-9220,-51,329,-42,-1.105093,2.325163,2.009758
15110656,22974,21656,-8944,-46,300,-28,-1.097702,2.324136,2.000573
15126281,22660,21212,-9016,-70,208,-48,-1.094266,2.323818,1.996366
15141908,22840,20872,-9298,-78,109,-87,-1.088477,2.324452,1.989618
15157535,23282,20864,-9560,-21,37,-111,-1.086098,2.325510,1.987387
15173161,23656,20998,-9672,82,12,-100,-1.082981,2.328123,1.985972
15188786,23834,21302,-9242,241,41,-49,-1.082089,2.329953,1.988277
15204412,23642,21606,-9060,294,78,-6,-1.082174,2.330425,1.990288
15220039,23372,21870,-9244,265,99,12,-1.082232,2.330380,1.994120
15235665,23252,21900,-9694,148,80,-7,-1.082098,2.330313,1.995430
15251291,23392,21788,-10078,55,31,-42,-1.080689,2.331197,1.996210
15266917,23562,21834,-10218,50,0,-65,-1.079742,2.332214,1.996321
15282542,23730,21842,-10148,80,16,-56,-1.078394,2.334426,1.997301
15298169,23746,21856,-9874,66,61,-41,-1.077726,2.335361,1.997802
15313798,23450,21750,-9898,-24,112,-30,-1.075884,2.336327,1.997195
15329424,23302,21610,-10144,-54,118,-27,-1.072805,2.336886,1.994041
15345050,23162,21390,-10114,-48,100,-40,-1.071379,2.337194,1.992494
15360677,23206,21376,-10032,3,74,-57,-1.068758,2.338129,1.990041
15376304,23344,21540,-9986,66,62,-54,-1.067575,2.338834,1.989531
15391930,23422,21652,-10004,81,53,-33,-1.066098,2.340017,1.989827
15407557,23552,21586,-9980,21,47,-22,-1.065679,2.340419,1.990226
15423183,23600,21584,-10118,-3,80,-30,-1.064269,2.341192,1.989761
15438810,23410,21666,-10190,18,133,-38,-1.063252,2.341437,1.988982
15454436,23038,21730,-10224,-1,135,-29,-1.060843,2.341678,1.987024
15470062,22972,21552,-10150,-32,76,-17,-1.058262,2.342245,1.984914
15485688,23076,21460,-9940,-29,33,-20,-1.057580,2.342602,1.984266
15501314,23186,21398,-9984,-18,17,-27,-1.056338,2.343569,1.983564
15516941,23332,21392,-9994,2,12,-27,-1.056000,2.344171,1.983503
15532568,23464,21540,-10222,64,27,-22,-1.055442,2.345158,1.984101
15548194,23448,21538,-10250,90,55,-8,-1.055326,2.345689,1.985744
15563820,23296,21520,-10118,77,63,-4,-1.055348,2.345784,1.986476
15579446,23110,21500,-10220,60,61,-28,-1.054952,2.346101,1.987454
15595072,22988,21582,-10224,5,66,-53,-1.054376,2.346540,1.987785
15610698,22960,21548,-10078,-23,52,-58,-1.052352,2.347887,1.986771
15626324,22990,21552,-10184,15,18,-40,-1.051200,2.348663,1.986136
15641951,23072,21518,-10236,41,-17,-16,-1.050536,2.350080,1.986871
15657577,23146,21422,-10350,49,-26,-7,-1.050727,2.350560,1.987870
15673202,23214,21332,-10374,45,-9,-18,-1.051559,2.351583,1.990273
15688828,23208,21304,-10434,74,6,-31,-1.051634,2.352068,1.991261
15704455,23176,21478,-10582,123,20,-25,-1.051936,2.353076,1.993706
15720081,23144,21748,-10648,135,22,-10,-1.052553,2.353920,1.996896
15735707,23098,22000,-10630,157,33,-1,-1.052789,2.354219,1.998493
15751334,22928,22090,-10582,110,73,-7,-1.053207,2.354792,2.001538
15766960,22908,21926,-10454,-12,49,-8,-1.052698,2.355156,2.002026
15782586,22924,21732,-10360,-93,-7,-3,-1.051541,2.355913,2.001034
15798213,23140,21736,-10418,-93,-30,-6,-1.050910,2.356853,1.999834
15813840,23418,21654,-10466,-56,-8,4,-1.050805,2.357330,1.999691
15829467,23264,21564,-10208,-28,31,3,-0.197173,-0.099278,-1.484004
15845093,23136,21650,-9942,-23,16,19,-1.050329,2.357534,1.998845
15860719,23082,21632,-10070,-34,-10,34,-1.050328,2.357458,1.998451
15876345,23166,21458,-10532,-62,-19,10,-1.050556,2.357452,1.998466
15891971,23186,21304,-10700,-75,-6,-26,-1.050484,2.358055,1.998231
15907597,23112,21142,-10592,-45,-5,-18,-1.050245,2.358818,1.997995
15923223,22994,21146,-10512,16,-18,3,-1.050431,2.359044,1.998433
15938849,23046,21304,-10374,92,-27,-3,-1.050972,2.359233,1.999527
15954476,23036,21716,-10406,136,-41,7,-1.052226,2.359994,2.002918
15970102,23164,21868,-10716,111,-51,26,-1.054012,2.360649,2.007128
15985728,23288,21828,-10800,40,-41,18,-1.055033,2.361010,2.009163
16001355,23218,21634,-10732,-15,-16,-7,-1.056081,2.361563,2.011141
16016982,23052,21536,-10624,-37,12,-28,-1.056029,2.361901,2.011319
16032609,22906,21594,-10452,-29,16,-26,-1.055215,2.362782,2.010798
16048235,22888,21626,-10410,-20,-13,3,-1.054733,2.363181,2.010441
16063862,22928,21596,-10538,-8,-43,20,-1.054903,2.363695,2.010786
16079488,23028,21608,-10630,8,-39,9,-1.055237,2.364007,2.011409
16095115,23162,21750,-10746,12,-12,0,-1.056087,2.364620,2.012859
16110741,23242,21570,-10796,-43,3,9,-1.056295,2.365117,2.013626
16126368,23230,21410,-10640,-72,3,5,-1.056291,2.365221,2.013385
16141995,23090,21314,-10562,-43,2,0,-1.056099,2.365322,2.012585
16157620,22938,21340,-10396,-6,0,2,-1.056023,2.365393,2.012425
16173246,22936,21486,-10290,39,-10,10,-1.056443,2.365453,2.013053
16188873,22974,21906,-10320,92,-19,33,-1.056737,2.365637,2.013771
16204499,23222,22090,-10696,90,-33,52,-1.058079,2.365603,2.016354
16220124,23478,21758,-10976,-63,-20,13,-1.059613,2.365586,2.018526
16235751,23466,21404,-10870,-157,15,-30,-1.059536,2.365762,2.018124
16251377,23138,21220,-10586,-144,38,-24,-1.057911,2.366267,2.014827
16267004,22798,21272,-10210,-33,34,9,-1.057182,2.366307,2.013393
16282630,22682,21618,-10350,76,6,33,-1.057050,2.365860,2.012900
16298257,22984,21816,-10780,66,-18,32,-1.057553,2.365807,2.013985
16313884,23320,21772,-10908,-25,-18,12,-1.058615,2.366082,2.016039
16329511,23494,21552,-10898,-75,5,-3,-1.058839,2.366261,2.016203
16345137,23176,21340,-10514,-63,47,0,-1.058421,2.366286,2.014997
16360763,22842,21492,-10298,-10,46,9,-1.057777,2.366011,2.013516
16376390,22704,21830,-10274,36,19,20,-1.057476,2.365843,2.013136
16392016,22994,22080,-10638,19,-11,30,-1.057549,2.365911,2.013744
16407643,23316,21826,-10884,-80,-11,33,-1.057893,2.365983,2.014156
16423269,23418,21426,-10968,-155,16,8,-1.057865,2.365967,2.013058
16438894,23276,21228,-10666,-142,49,-13,-1.057558,2.365930,2.011803
16454521,23028,21130,-10450,-85,48,-2,-1.056208,2.365704,2.008677
16470148,22846,21294,-10336,5,14,21,-0.813195,2.642839,-1.918494
16485774,22908,21564,-10330,47,3,24,-1.056198,2.365134,2.008094
16501401,23058,21708,-10438,38,10,30,-1.057096,2.364996,2.009568
16517026,23138,21720,-10606,-1,13,25,-1.057412,2.364817,2.009982
16532653,23200,21512,-10690,-49,10,16,-1.057650,2.364769,2.010293
16548280,23180,21392,-10640,-58,8,13,-1.057652,2.364691,2.009901
16563905,23064,21382,-10558,-30,8,15,-1.057814,2.364576,2.009603
16579531,23054,21484,-10532,11,1,15,-1.057930,2.364574,2.009610
16595158,23186,21774,-10572,69,2,17,-1.058511,2.364615,2.010670
16610784,23256,21878,-10716,35,5,23,-1.059360,2.364653,2.012506
16626411,23330,21766,-10930,-33,13,18,-1.059632,2.364631,2.012944
16642037,23350,21574,-10888,-73,22,-4,-1.059520,2.364616,2.012601
16657664,23228,21498,-10608,-70,38,-5,-1.059436,2.364669,2.012088
16673291,23050,21596,-10454,-27,46,12,-1.058627,2.364613,2.010677
16688918,23028,21678,-10568,-12,30,15,-1.058441,2.364444,2.010303
16704544,23194,21546,-10676,-45,12,6,-1.058212,2.364370,2.009897
16720171,23276,21432,-10712,-62,17,-1,-1.058046,2.364572,2.009616
16735798,23144,21306,-10526,-41,31,0,-1.057775,2.364576,2.008842
16751424,23030,21372,-10400,-3,22,1,-1.057509,2.364417,2.008251
16767051,22964,21650,-10460,54,16,2,-1.057544,2.364442,2.008379
16782677,23130,21880,-10584,58,10,8,-1.057850,2.364662,2.009787
16798303,23250,21742,-10658,-2,0,12,-1.058042,2.364728,2.010402
16813929,23272,21414,-10734,-61,10,17,-1.058300,2.364930,2.010694
16829556,23096,21286,-10654,-66,28,12,-1.058346,2.364817,2.010390
16845182,22870,21350,-10534,-16,24,5,-1.058083,2.364579,2.009408
16860808,22990,21636,-10548,60,-4,21,-1.058355,2.364696,2.010294
16876435,23080,21686,-10688,37,-5,30,-1.058935,2.364677,2.011299
16892061,23236,21600,-10824,-6,-1,17,-1.059860,2.364731,2.012717
16907688,23364,21564,-10862,-12,-2,1,-1.059982,2.364747,2.013076
16923314,23410,21478,-10786,9,3,2,-1.060318,2.365001,2.013640
16938941,23312,21570,-10784,25,23,7,-1.060784,2.364908,2.014246
16954567,23046,21610,-10606,15,47,7,-1.060943,2.364784,2.014919
16970193,22820,21710,-10646,-13,49,4,-1.060826,2.364725,2.014856
16985819,22922,21708,-10674,-32,8,-3,-1.059934,2.364835,2.014014
17001445,23270,21676,-10714,-11,-14,-1,-1.059632,2.365445,2.013731
17017071,23488,21632,-10792,3,0,7,-1.059774,2.365711,2.014072
17032697,23480,21476,-10722,-14,35,11,-1.060089,2.365654,2.014598
17048323,23162,21450,-10756,-34,58,-2,-1.060097,2.365412,2.014392
17063950,22904,21468,-10802,-23,52,-10,-1.059373,2.365181,2.013384
17079577,22830,21584,-10794,-2,26,-10,-1.058870,2.365267,2.012988
17095202,23068,21620,-10726,5,8,-5,-1.058489,2.365862,2.013124
17110829,23228,21564,-10788,4,13,2,-1.058515,2.366129,2.013458
17126455,23228,21546,-10652,6,30,0,-1.058627,2.366205,2.013857
17142081,23228,21640,-10746,11,39,1,-1.058471,2.366199,2.014059
17157707,23130,21626,-10898,-3,41,7,-1.058354,2.366140,2.013997
17173333,23036,21692,-10864,-29,35,-1,-1.058122,2.366144,2.013984
17188959,22996,21592,-10902,-43,28,-11,-1.057851,2.366166,2.013546
17204585,23012,21530,-10798,-39,32,2,-1.057096,2.366585,2.012750
17220210,23008,21456,-10782,-26,35,10,-1.057019,2.366596,2.012535
17235837,23120,21566,-10804,-24,20,0,-1.056791,2.366522,2.012129
17251464,23200,21524,-10794,-22,17,0,-1.056632,2.366681,2.012146
17267090,23248,21580,-10858,-16,21,6,-1.056588,2.366776,2.012114
17282716,23146,21570,-10828,-19,29,8,-1.056782,2.366704,2.012280
17298342,23012,21562,-10824,-34,40,4,-1.056747,2.366618,2.012097
17313967,22998,21588,-10780,-42,36,2,-1.056325,2.366557,2.011469
17329592,22954,21598,-10778,-26,24,4,-1.056053,2.366579,2.011032
17345218,23088,21640,-10708,-29,11,16,-1.055816,2.366748,2.010833
17360844,23204,21508,-10824,-53,12,19,-1.056047,2.366683,2.010790
17376469,23156,21408,-10854,-43,22,4,-1.056016,2.366580,2.010270
17392095,23156,21454,-10842,6,25,4,-1.056097,2.366492,2.010093
17407722,23154,21560,-10842,41,21,13,-1.056254,2.366472,2.010525
17423348,23130,21658,-10746,42,19,15,-1.057032,2.366336,2.011991
17438974,23080,21658,-10854,19,31,9,-1.057265,2.366306,2.012638
17454600,23032,21582,-10822,-21,30,6,-1.057260,2.366323,2.012975
17470226,23082,21554,-10834,-19,13,5,-1.057110,2.366300,2.012840
17485853,23226,21588,-10810,16,7,-1,-1.057251,2.366505,2.013126
17501479,23328,21610,-10758,39,22,9,-1.057551,2.366646,2.014139
17517105,23138,21588,-10838,1,41,18,-1.057748,2.366530,2.014603
17532732,22936,21610,-10876,-30,36,3,-1.057877,2.366181,2.014644
17548358,22872,21642,-10890,-23,20,-1,-1.057641,2.366289,2.014390
17563985,23072,21660,-10920,-8,8,10,-1.057236,2.366737,2.014303
17579610,23182,21594,-10898,-10,10,19,-1.057536,2.366844,2.014627
17595236,23208,21578,-10958,-25,24,20,-1.057816,2.366702,2.014969
17610862,23126,21534,-10956,-40,30,12,-1.057976,2.366604,2.015008
17626488,22990,21586,-10898,-26,21,11,-1.058024,2.366430,2.014648
17642115,23050,21686,-10906,-13,16,11,-1.058068,2.366395,2.014736
17657742,23176,21744,-10846,-23,20,16,-1.058175,2.366514,2.014838
17673369,23142,21666,-10842,-45,25,17,-1.058142,2.366489,2.014710
17688996,23122,21526,-10964,-69,26,19,-1.058030,2.366413,2.014312
17704622,23134,21390,-10950,-65,24,13,-1.057890,2.366174,2.013337
17720248,23030,21456,-10842,-30,16,5,-1.057894,2.366096,2.012944
17735874,23128,21574,-10838,-10,15,13,-1.058045,2.366180,2.013134
17751499,23130,21650,-10856,-21,14,10,-1.058282,2.366133,2.013445
17767125,23172,21602,-10968,-21,16,8,-1.058239,2.366229,2.013412
17782751,23174,21534,-10980,-3,13,9,-1.058390,2.366313,2.013602
17798376,23270,21548,-10872,28,10,9,-1.058661,2.366291,2.014040
17814002,23270,21582,-10880,40,18,9,-1.059348,2.366349,2.015442
17829628,23174,21640,-10886,14,32,3,-1.059545,2.366233,2.015906
17845254,23026,21678,-10866,-20,33,-1,-1.059538,2.366250,2.016243
17860880,22984,21740,-10908,-25,22,-1,-1.059302,2.366358,2.015988
17876507,23092,21682,-10884,-35,15,8,0.970606,-0.469132,0.886555
17892134,23130,21514,-10902,-43,20,14,-1.058666,2.366836,2.015254
17907760,23008,21436,-10908,-28,29,15,-1.058633,2.366811,2.015126
17923386,22974,21460,-11002,-17,24,18,-1.058802,2.366531,2.015014
17939012,23082,21572,-10966,-8,8,21,-1.058951,2.366554,2.015149
17954639,23228,21654,-11030,-21,12,24,-1.059532,2.366519,2.015815
17970265,23112,21688,-10908,-47,31,17,-1.059736,2.366387,2.015942
17985891,23090,21680,-10914,-57,34,20,-1.059398,2.366297,2.015193
18001517,23070,21580,-10968,-58,23,28,-1.059450,2.365984,2.014386
18017143,23174,21486,-10916,-56,13,16,-1.059382,2.365873,2.014075
18032770,23282,21522,-10830,-49,18,7,-1.059460,2.365889,2.013657
18048397,23244,21548,-10844,-42,30,7,-1.059391,2.365778,2.013346
18064023,23134,21580,-10824,-25,34,11,-1.059084,2.365714,2.012725
18079649,23118,21632,-10858,-5,25,13,-1.059243,2.365555,2.012708
18095275,23114,21608,-10938,0,18,7,-1.059206,2.365608,2.012973
18110901,23184,21552,-10850,-8,18,6,-1.059468,2.365707,2.013506
18126528,23232,21490,-10982,-7,21,2,-1.059468,2.365707,2.013506
18142155,23150,21482,-10900,1,16,1,-1.059775,2.365772,2.014128
18157781,23192,21544,-10882,23,9,-8,-1.059843,2.365944,2.014494
18173407,23224,21672,-10906,47,13,-3,-1.060135,2.366269,2.015658
18189034,23218,21744,-10908,38,23,5,-1.060163,2.366433,2.016233
18204661,23136,21714,-10980,-8,32,1,-1.060461,2.366515,2.017190
18220287,23076,21618,-11026,-39,34,-1,-1.060301,2.366612,2.017151
18235913,22992,21584,-11028,-39,30,4,-1.059751,2.366837,2.016426
18251539,23092,21568,-11104,-25,17,3,-1.059675,2.366847,2.016211
18267164,23220,21610,-10908,-9,14,9,-1.059622,2.367125,2.016328
18282797,23186,21662,-10992,-22,28,16,-1.059816,2.367113,2.016551
18298424,23160,21612,-11030,-56,43,12,-1.059825,2.366931,2.016400
18314050,22966,21526,-10918,-64,40,8,-1.059409,2.366790,2.015381
18329676,23028,21606,-10888,-40,30,8,-1.059298,2.366714,2.014982
18345303,23138,21656,-10862,-19,24,17,-1.058984,2.366832,2.014512
18360928,23228,21642,-10924,-36,28,19,-1.058959,2.366624,2.014234
18376555,23158,21548,-11010,-50,28,9,-1.059040,2.366476,2.014001
18392181,23126,21468,-11012,-38,25,11,-1.058895,2.366374,2.013475
18407808,23076,21466,-10896,-13,29,12,-1.058851,2.366470,2.013443
18423434,23108,21606,-10894,10,27,6,-1.059088,2.366302,2.013642
18439061,23164,21578,-10866,14,19,5,-1.059093,2.366259,2.013939
18454688,23264,21668,-10920,20,8,-4,-1.059317,2.366411,2.014736
18470314,23360,21666,-11028,16,10,-6,-1.059535,2.366606,2.015237
18485939,23308,21538,-11042,4,27,-5,-1.059748,2.366941,2.016184
18501566,23126,21566,-10944,4,43,-8,-1.059781,2.366966,2.016312
18517193,22888,21660,-11088,11,34,-6,-1.059315,2.367034,2.016341
18532820,22984,21708,-11112,-5,15,-1,-1.059096,2.367426,2.016757
18548446,23144,21636,-11106,-17,12,-1,-1.058971,2.367671,2.016956
18564072,23218,21602,-11052,-29,23,5,-1.059068,2.367972,2.017208
18579698,23140,21440,-11004,-40,37,9,-1.058919,2.368010,2.017129
18595325,22968,21562,-10966,-29,42,3,-1.058924,2.367810,2.016627
18610952,22934,21720,-10984,-10,34,6,-1.058464,2.367800,2.016264
18626578,23060,21774,-11046,-19,23,12,-1.058454,2.367921,2.016359
18642203,23188,21498,-11036,-59,23,4,-1.058411,2.368017,2.016327
18657829,23206,21420,-11036,-53,32,4,-1.058297,2.368045,2.015687
18673455,23130,21432,-10966,-14,32,8,-1.058036,2.367946,2.015154
18689081,23164,21550,-11004,12,28,8,-1.058123,2.367754,2.015219
18704708,23208,21616,-11044,5,28,3,-1.058547,2.367651,2.016033
18720334,23184,21614,-11058,-9,32,-3,-1.058464,2.367739,2.016209
18735961,23156,21678,-11138,-6,33,-4,-1.058231,2.367804,2.016252
18751587,23076,21592,-11060,-2,33,2,-1.058221,2.367924,2.016347
18767212,23016,21592,-10978,7,30,4,-1.058171,2.368037,2.016651
18782838,23170,21636,-11088,11,23,-5,-1.058197,2.368201,2.017226
18798464,23190,21674,-11134,-8,28,0,-1.058071,2.368384,2.017370
18814090,23114,21638,-11108,-32,33,4,-1.057988,2.368472,2.017547
18829716,23004,21504,-11132,-42,35,2,-1.057911,2.368482,2.017331
18845343,22990,21512,-11078,-23,30,0,-1.057642,2.368504,2.016894
18860970,23030,21590,-11130,6,19,-3,-1.057549,2.368773,2.017221
18876596,23108,21670,-11192,3,13,7,-1.057615,2.368945,2.017587
18892223,23234,21600,-11058,-23,20,10,-1.057842,2.369019,2.017992
18907850,23056,21564,-11190,-31,38,2,-1.058001,2.368922,2.018030
18923476,22972,21564,-11110,-22,38,5,-1.057615,2.368945,2.017587
18939102,22972,21600,-11106,-27,24,6,-1.057615,2.368945,2.017587
18954729,23030,21594,-11020,-31,16,3,-1.057529,2.369137,2.017522
18970355,23108,21576,-11062,-29,16,6,-1.057486,2.369233,2.017489
18985982,23156,21542,-11128,-30,26,16,-1.057454,2.369208,2.017362
19001609,23212,21562,-11172,-29,26,11,-1.057613,2.369110,2.017400
19017236,23130,21572,-11216,-23,25,-4,-1.057773,2.369013,2.017439
19032862,23108,21578,-11130,-16,25,3,-1.057604,2.369292,2.017550
19048489,23032,21592,-11134,-19,26,11,-1.057796,2.369220,2.017717
19064115,23054,21568,-11108,-7,28,1,-1.057796,2.369220,2.017717
19079741,23076,21696,-11098,4,25,-3,-1.057756,2.369272,2.017981
19095367,23090,21658,-11186,-18,21,4,-1.057812,2.369565,2.018442
19110992,23134,21588,-11174,-38,24,2,-1.057812,2.369565,2.018442
19126618,23052,21554,-11124,-43,27,-5,-1.057650,2.369767,2.018161
19142244,23016,21538,-11018,-41,25,0,-1.057414,2.369875,2.017907
19157871,22986,21500,-11088,-12,23,4,-1.057218,2.369991,2.017444
19173497,23016,21626,-11126,0,24,3,-1.057178,2.370043,2.017708
19189124,23072,21642,-11156,-11,20,1,-1.057404,2.370057,2.018057
19204751,23112,21662,-11140,-26,15,2,-1.057278,2.370301,2.018256
19220376,23108,21608,-11142,-40,20,4,-1.057235,2.370397,2.018223
19236002,23034,21506,-11142,-41,34,11,-1.057232,2.370502,2.017982
19251629,22924,21546,-11150,-37,37,10,-1.057199,2.370416,2.017799
19267255,22926,21594,-11124,-26,25,0,-1.057017,2.370306,2.017483
19282881,23134,21650,-11156,-15,11,6,-1.057079,2.370461,2.017496
19298507,23232,21594,-11146,-18,15,11,-1.057113,2.370608,2.017734
19314133,23222,21548,-11194,-28,31,7,-1.057350,2.370561,2.018042
19329760,23102,21512,-11192,-37,38,0,-1.057466,2.370499,2.017993
19345387,22900,21488,-11122,-31,34,1,-1.057090,2.370401,2.017456
19361013,22948,21578,-11102,-14,22,3,-1.057046,2.370435,2.017369
19376639,23048,21706,-11166,-7,12,3,-1.057070,2.370704,2.017701
19392266,23206,21714,-11144,-13,16,0,-1.057147,2.370755,2.017971
19407892,23244,21706,-11206,-21,33,-2,-1.057137,2.370937,2.018121
19423517,23066,21680,-11180,-61,53,7,-1.056867,2.370897,2.017630
19439144,22892,21564,-11130,-83,46,1,-1.056414,2.370809,2.016877
19454771,22976,21498,-11108,-79,25,-8,-1.055643,2.370883,2.015359
19470396,23082,21470,-11132,-43,16,-14,-1.055445,2.370999,2.014897
19486022,23142,21482,-11092,-7,31,0,-1.055315,2.371287,2.014800
19501649,22966,21492,-10988,-10,48,19,-1.055199,2.371289,2.014793
19517275,22714,21542,-11006,-30,37,8,-1.055382,2.370723,2.014773
19532901,22888,21590,-11072,-25,5,-6,-1.055294,2.370854,2.014653
19548528,23278,21658,-11114,7,-1,6,-1.055426,2.371363,2.015197
19564155,23354,21676,-11264,-5,25,19,-1.055958,2.371501,2.016219
19579781,23116,21614,-11192,-39,48,14,-1.056205,2.371212,2.016323
19595408,22892,21550,-11142,-53,48,8,-1.056030,2.370859,2.015802
19611035,22756,21612,-11216,-56,28,5,-1.055920,2.370783,2.015404
19626662,22930,21612,-11160,-39,10,6,-1.055679,2.370995,2.014909
19642289,23184,21576,-11126,-32,13,6,-1.055636,2.371152,2.014931
19657915,23246,21558,-11062,-27,30,0,-1.055903,2.371234,2.015125
19673542,23186,21592,-11098,-31,49,0,-1.055603,2.371127,2.014803
19689168,23062,21594,-11120,-46,57,1,-1.055524,2.371015,2.014478
19704797,22864,21542,-11104,-63,59,6,-1.054962,2.370748,2.013570
19720423,22802,21514,-10996,-51,51,9,-1.054506,2.370600,2.012762
19736050,22842,21500,-11018,-30,34,12,-1.054165,2.370451,2.011960
19751677,22946,21430,-11124,-23,23,19,-1.054165,2.370451,2.011960
19767303,23034,21416,-11192,-23,20,22,-1.054713,2.370268,2.012385
19782930,23066,21444,-11060,-19,22,16,-1.055110,2.370062,2.012677
19798557,23224,21844,-11054,77,39,13,-1.055663,2.369837,2.013400
19814184,23290,22068,-11132,53,52,22,-1.056207,2.369601,2.015093
19829810,23330,22062,-11246,-21,72,29,-1.056297,2.369305,2.015399
19845436,23150,22020,-11158,-114,103,29,-1.055832,2.368604,2.014347
19861062,22814,21828,-10938,-202,124,38,-1.055163,2.368063,2.012534
19876689,22552,21572,-10756,-193,108,44,-1.053012,2.366917,2.007157
19892316,22642,21508,-10838,-120,67,50,-1.052024,2.366440,2.004828
19907943,23108,21530,-11148,-88,35,56,-1.051817,2.365592,2.002785
19923569,23754,21564,-11444,-126,40,53,-1.052222,2.365125,2.002531
19939196,23648,21802,-11310,-200,102,39,-1.053001,2.363909,2.001348
19954822,23234,21574,-10554,-234,159,52,-1.051620,2.362443,1.996715
19970448,22724,21368,-10146,-81,152,90,-1.050543,2.361379,1.993639
19986075,22568,21472,-10626,38,105,107,-1.050521,2.358737,1.991347
20001702,22878,21536,-11048,-21,50,74,-1.051162,2.357766,1.991876
20017329,23350,21496,-11120,-129,19,27,-1.052238,2.357005,1.992295
20032955,23598,21460,-10768,-158,50,20,-1.052109,2.356972,1.991615
20048580,23510,21710,-10492,-54,111,47,-1.051586,2.356212,1.989171
20064206,23218,22038,-10844,-25,115,51,-1.051278,2.354765,1.987541
20079832,23108,22148,-11080,-166,87,47,-1.051030,2.354148,1.986868
20095458,23024,21596,-10812,-296,52,33,-1.049825,2.353677,1.983174
20111084,22962,21066,-10142,-201,42,30,-1.048958,2.353709,1.980610
20126711,22910,21088,-10206,-44,41,50,-1.048408,2.353060,1.977709
20142337,23098,21306,-10744,-14,17,61,-1.048813,2.352669,1.977844
20157964,23452,21482,-11398,-68,-27,59,-1.050741,2.351942,1.979709
20173590,23630,21664,-11276,-128,-41,35,-1.051828,2.351841,1.980510
20189216,23510,21700,-10476,-37,14,59,-1.053339,2.352185,1.981421
20204842,23342,21732,-10392,2,57,116,-1.054906,2.351080,1.982258
20220469,23248,21800,-10948,-59,31,114,-1.055781,2.349982,1.982709
20236096,23328,21802,-11214,-205,-14,73,-1.057672,2.348605,1.983026
20251723,23440,21580,-10828,-271,-27,47,-1.057960,2.348593,1.982084
20267349,23304,21436,-9984,-154,-4,54,-1.058151,2.348602,1.979538
20282975,23224,21550,-9550,-5,23,89,-1.058359,2.348269,1.978969
20298600,23356,21794,-10254,-19,24,90,-1.059978,2.346771,1.979569
20314227,23538,21816,-11134,-272,-9,36,-1.060594,2.346095,1.978634
20329854,23476,21442,-10614,-319,-54,30,-1.060400,2.346303,1.976969
20345479,23230,20932,-9794,-161,-104,56,-1.060462,2.346834,1.974132
20361105,23308,20746,-9200,35,-118,92,-1.061761,2.346825,1.974722
20376731,23584,21266,-10156,102,-88,108,-1.066347,2.345753,1.979414
20392357,23746,21620,-10836,-47,-51,77,-1.068636,2.345232,1.982036
20407984,23540,21598,-10550,-75,-61,57,-1.071221,2.344840,1.984175
20423611,23506,21800,-10270,49,-89,67,-1.072324,2.344933,1.985144
20439236,23640,22206,-10244,45,-61,119,-1.075660,2.344936,1.989524
20454862,23694,22422,-10688,-78,-12,116,-1.078890,2.344023,1.992566
20470489,23670,22250,-10410,-219,5,84,-1.079623,2.343542,1.992355
20486115,23694,21874,-10142,-280,-17,54,-1.079305,2.343008,1.988887
20501742,23894,21636,-10268,-315,-7,29,-1.078784,2.343074,1.986525
20517367,24014,21692,-10572,-363,39,28,-1.076999,2.342941,1.980650
20532992,24022,21718,-10764,-407,66,52,-1.075841,2.342677,1.977087
20548619,23784,21460,-10212,-370,78,81,-1.073682,2.341534,1.969457
20564245,23554,21408,-9570,-268,58,78,-1.072359,2.339868,1.963299
20579870,23636,21358,-9682,-279,51,56,-1.071673,2.339074,1.960637
20595497,23904,21542,-9956,-354,46,15,-1.070070,2.338146,1.955067
20611124,24014,21858,-10018,-422,61,10,-1.068734,2.338099,1.951555
20626751,23618,21726,-8918,-401,81,79,-1.065358,2.337688,1.943110
20642378,23044,21572,-7948,-269,44,157,-1.064122,2.336723,1.939039
20658004,23004,21458,-7956,-214,8,175,-1.064167,2.333736,1.933813
20673630,23388,21536,-8856,-375,-34,88,-1.064269,2.331848,1.929272
20689257,23852,21520,-9206,-563,-81,-3,-1.063062,2.331987,1.925223
20704883,24106,21200,-8894,-434,-108,62,-1.060555,2.332958,1.917384
20720509,24498,21312,-9422,-365,-105,121,-1.061045,2.332560,1.915376
20736135,24818,21736,-10054,-439,-14,107,-1.063172,2.330892,1.912246
20751761,24738,22366,-9986,-524,118,90,-1.063138,2.329862,1.909169
20767388,23978,22348,-9034,-595,171,132,-1.059535,2.327677,1.898791
20783015,23434,21386,-8152,-576,113,163,-1.057024,2.326150,1.892138
20798642,23562,20742,-8282,-568,66,114,-1.053515,2.322969,1.880439
20814269,24092,20924,-8618,-644,79,20,-1.051721,2.321881,1.875054
20829895,24082,21348,-7538,-656,88,13,-1.045690,2.321194,1.862278
20845522,23936,20924,-6764,-492,21,96,-1.039343,2.320226,1.849185
20861147,24266,20592,-6998,-389,-1,118,-1.038282,2.319065,1.845125
20876774,24694,20818,-7592,-436,56,50,-1.037545,2.316416,1.838769
20892400,24548,21126,-7686,-511,129,12,-1.035952,2.315467,1.834431
20908026,24050,21032,-7152,-448,105,57,-1.030535,2.314257,1.824026
20923653,23932,20760,-6980,-311,21,102,-1.028560,2.312170,1.817402
20939280,24052,20918,-7022,-308,-18,75,-1.028819,2.311156,1.815770
20954907,24302,21030,-7016,-373,24,25,-1.027931,2.310225,1.811436
20970533,24492,21348,-7124,-313,40,43,-1.026888,2.309784,1.808647
20986159,24386,21602,-6982,-338,31,70,-1.025231,2.308688,1.803851
21001785,24234,21358,-6494,-432,31,68,-1.024614,2.307968,1.801285
21017411,24450,21088,-6530,-481,72,26,-1.021178,2.306765,1.793554
21033037,24612,21310,-6862,-456,147,-12,-1.015320,2.306132,1.783848
21048663,24448,21692,-6970,-505,200,-9,-1.011457,2.305857,1.778231
21064289,23802,21634,-6130,-671,205,6,-1.007217,2.305625,1.772082
21079914,23362,20642,-5194,-771,103,-1,-0.995737,2.305251,1.755653
21095540,23930,19800,-5488,-688,9,-41,-0.984463,2.305288,1.739680
21111166,24646,19480,-5976,-570,19,-71,-0.980654,2.305468,1.733940
21126797,24718,19620,-5770,-483,106,-44,-0.974515,2.305383,1.724722
21142424,24024,19824,-5324,-366,142,34,-0.971845,2.304829,1.720374
21158051,23538,19828,-4922,-206,64,78,-0.968599,2.302499,1.713777
21173677,23752,19968,-5146,-71,-48,48,-0.969140,2.301329,1.712877
21189304,24498,20176,-5334,1,-78,6,-0.973592,2.300061,1.716178
21204930,24646,20722,-5332,35,-8,25,-0.976550,2.299765,1.718944
21220556,24138,20808,-5208,-50,51,50,-0.981522,2.298734,1.723421
21236182,23702,20634,-5148,-88,29,49,-0.983343,2.297501,1.724140
21251807,23884,20536,-5364,-88,-50,22,-0.984294,2.296950,1.724462
21267433,24432,20448,-5572,-75,-80,12,-0.987338,2.296734,1.726993
21283059,24694,20530,-5448,-78,-32,18,-0.989486,2.296503,1.728800
21298685,24364,20688,-5060,-117,18,28,-0.992338,2.295709,1.730615
21314310,23860,20418,-4884,-175,22,22,-0.992923,2.295147,1.730331
21329937,24060,20102,-5380,-86,-27,2,-0.992697,2.294567,1.728901
21345562,24334,20302,-5622,30,-31,-2,-0.995448,2.294305,1.731109
21361189,24258,20410,-5452,52,-2,9,-0.997849,2.294011,1.733513
21376815,24002,20694,-5194,54,13,13,-1.001873,2.293572,1.737705
21392441,23918,20692,-5138,47,-2,11,-1.003313,2.293452,1.739182
21408068,24098,20526,-5278,56,-21,1,-1.006529,2.293346,1.742828
21423695,24262,20558,-5532,70,-4,-11,-1.008351,2.293334,1.744827
21439321,24118,20690,-5388,58,33,-11,-1.011581,2.293538,1.748814
21454948,23830,20764,-5170,8,19,2,-1.012594,2.293499,1.750201
21470575,24120,20394,-5300,15,-53,-11,-1.014206,2.293713,1.752048
21486202,24572,20260,-5696,75,-75,-22,-1.017758,2.294002,1.756005
21501828,24744,20318,-5694,99,-38,-22,-1.020348,2.294169,1.758963
21517454,24488,20550,-5424,106,-1,-7,-1.024904,2.294139,1.764347
21533081,24172,20808,-5334,112,-1,15,-1.026653,2.294004,1.766359
21548707,24040,20990,-5408,98,-9,13,-1.030178,2.293695,1.770491
21564334,24186,21058,-5758,41,-13,-3,-1.031770,2.293743,1.772454
21579961,24328,21068,-6036,-30,4,-17,-1.033709,2.294222,1.775160
21595587,24212,20982,-5954,-157,55,-27,-1.033532,2.294902,1.775212
21611212,24010,21246,-5714,-253,69,-17,-1.032488,2.295073,1.773880
21626838,23940,21272,-5260,-363,49,-19,-1.028355,2.295614,1.768497
21642464,24106,21006,-5204,-431,34,-38,-1.025211,2.296036,1.764529
21658089,24394,20552,-5232,-420,40,-54,-1.018532,2.296909,1.755997
21673716,24462,19752,-5018,-383,40,-56,-1.015434,2.297242,1.751990
21689342,24462,19286,-4968,-297,41,-37,-1.010199,2.297364,1.744979
21704968,24414,19642,-5078,-167,62,-3,-1.008914,2.297002,1.742512
21720594,23988,20368,-5066,-15,70,30,-1.008052,2.295606,1.740243
21736221,24028,20758,-5152,56,13,40,-1.009895,2.294382,1.741189
21751846,24222,20822,-5072,44,-30,25,-1.011616,2.294010,1.742926
21767473,24324,20694,-4834,-62,-13,4,-1.015147,2.293681,1.746196
21783099,24348,20486,-4920,-160,34,1,-1.015377,2.293617,1.746251
21798726,24144,20526,-4908,-200,57,-2,-1.014030,2.293143,1.743601
21814352,23928,20212,-4870,-176,28,-6,-1.012737,2.293030,1.741915
21829978,24050,19862,-4810,-102,-26,-18,-1.011519,2.292913,1.739800
21845605,24346,19954,-4948,-32,-27,-4,-1.013539,2.292801,1.741122
21861232,24272,20138,-5034,13,7,18,-1.014925,2.292499,1.742155
21876858,24050,20426,-4928,49,20,13,-1.017663,2.291660,1.744604
21892484,23874,20568,-4786,38,1,-2,-1.019030,2.291421,1.745807
21908110,23942,20594,-4704,10,-30,-8,-1.021222,2.291540,1.748401
21923735,24160,20406,-4816,-12,-50,-2,-1.022276,2.291779,1.749578
21939361,24382,20296,-5124,-26,-46,-1,-1.024959,2.291807,1.751922
21954988,24456,20320,-5120,-42,-24,5,-1.026147,2.291720,1.753077
21970614,24128,20452,-4838,-53,4,3,-1.028450,2.291246,1.754595
21986241,23904,20458,-4706,-57,-3,-15,-1.029080,2.291090,1.754833
22001867,23856,20356,-4728,-71,-31,-17,-1.029236,2.291315,1.755017
22017493,24098,20168,-4830,-50,-50,-15,-1.029950,2.291742,1.755556
22033120,24430,20162,-5238,-2,-47,-5,-1.031083,2.291828,1.756404
22048747,24552,20282,-5402,55,-20,-1,-1.034348,2.291677,1.759521
22064373,24336,20562,-5216,96,17,-6,-1.036233,2.291433,1.761381
22079999,24038,20766,-5050,89,24,0,-1.039111,2.291230,1.764799
22095625,24070,20952,-4946,33,9,2,-1.040094,2.291251,1.766083
22111252,24242,20648,-5074,-57,-1,-7,-1.041154,2.291521,1.767528
22126878,24270,20282,-5108,-98,17,-12,-1.041402,2.291591,1.767384
22142504,24230,20230,-5030,-98,31,-9,-1.041105,2.291594,1.766869
22158131,24134,20314,-5046,-78,22,5,-1.040289,2.291264,1.765481
22173757,24186,20498,-5038,-42,4,16,-1.040337,2.291086,1.765244
22189383,24252,20548,-4978,-26,14,10,-1.041514,2.290663,1.765722
22205009,24226,20620,-4870,-36,40,-2,-1.041786,2.290423,1.765903
22220636,24116,20580,-4866,-96,52,4,-1.041272,2.290238,1.765100
22236263,24054,20156,-4886,-161,36,10,-1.039287,2.289925,1.762388
22251890,24124,19992,-4896,-107,14,12,-1.038696,2.289613,1.761135
22267516,24252,20216,-5004,-30,5,12,-1.038768,2.288968,1.760245
22283142,24242,20422,-4962,2,12,23,-1.039578,2.288724,1.760806
22298769,24218,20376,-4784,-26,26,22,-1.041326,2.287988,1.761989
22314395,24164,20332,-4662,-68,17,13,-1.041702,2.287679,1.762110
22330020,24172,20168,-4688,-73,-6,10,-1.041682,2.287252,1.761352
22345647,24298,20174,-4934,-34,-8,12,-1.042102,2.287031,1.761379
22361272,24368,20456,-5082,4,22,12,-1.043560,2.286508,1.762388
22376898,24170,20542,-4854,-23,26,14,-1.044934,2.286083,1.763454
22392524,24046,20552,-4650,-58,7,9,-1.045261,2.285813,1.763469
22408151,24182,20482,-4690,-85,-13,-3,-1.045014,2.285845,1.763054
22423777,24220,20324,-4786,-96,2,-11,-1.045176,2.285933,1.762892
22439403,24260,20254,-4876,-94,24,-9,-1.044438,2.286066,1.761726
22455030,24152,20268,-4996,-69,26,8,-1.044054,2.285889,1.761041
22470655,23960,20176,-4916,-34,21,13,-1.044353,2.285529,1.760792
22486281,23944,20278,-4814,-15,-1,2,-1.045250,2.285267,1.761377
22501908,24120,20526,-4926,-26,-19,8,-1.045738,2.285295,1.761926
22517534,24248,20486,-4854,-52,-14,8,-1.047264,2.285278,1.763055
22533161,24266,20362,-4822,-64,-1,5,-1.047759,2.285236,1.763253
22548787,24284,20234,-4716,-60,2,5,-1.048051,2.284997,1.763079
22564413,24254,20268,-4682,-46,4,3,-1.048321,2.284886,1.763060
22580040,24260,20306,-4722,-38,7,7,-1.048744,2.284666,1.763090
22595667,24280,20360,-4966,-49,13,4,-1.049050,2.284447,1.763187
22611294,24228,20410,-4814,-45,21,0,-1.049355,2.284355,1.763081
22626919,24194,20452,-4794,-43,18,6,-1.049327,2.284265,1.762818
22642546,24198,20394,-4796,-68,19,6,-1.049515,2.284174,1.762779
22658172,24220,20286,-4768,-67,24,-4,-1.049160,2.284015,1.762007
22673798,24276,20272,-4856,-62,21,-6,-1.048881,2.283906,1.761607
22689424,24240,20188,-4778,-78,34,1,-1.048740,2.283746,1.761059
22705051,24078,20168,-4614,-82,31,6,-1.048264,2.283588,1.760354
22720678,24014,20122,-4532,-58,10,6,-1.047561,2.283289,1.759079
22736304,24228,20322,-4734,-30,-9,10,-1.047852,2.283127,1.758981
22751930,24352,20282,-4740,-33,0,9,-1.048768,2.282935,1.759562
22767557,24348,20252,-4682,-30,11,8,-1.049828,2.282565,1.760200
22783184,24226,20278,-4644,-49,23,7,-1.050233,2.282473,1.760386
22798811,24150,20208,-4608,-49,29,6,-1.050027,2.282076,1.759866
22814437,24144,20336,-4740,-23,17,10,-1.049913,2.282005,1.759582
22830063,24222,20392,-4764,-24,7,4,-1.050795,2.281733,1.759982
22845689,24246,20374,-4550,-39,7,-2,-1.051073,2.281763,1.760309
22861316,24314,20210,-4638,-51,11,-1,-1.051272,2.281741,1.760264
22876943,24222,20004,-4760,-43,33,-1,-1.050944,2.281472,1.759607
22892569,24150,20092,-4678,-6,32,6,-1.051120,2.281312,1.759576
22908195,24082,20316,-4672,24,19,14,-1.051672,2.280914,1.760022
22923821,24200,20478,-4666,11,6,13,-1.052158,2.280874,1.760580
22939448,24294,20430,-4666,-26,7,8,-1.053468,2.280595,1.761709
22955075,24404,20338,-4760,-51,26,2,-1.053551,2.280575,1.761731
22970701,24246,20262,-4716,-60,55,1,-1.053325,2.280434,1.761162
22986326,24092,20206,-4622,-48,55,3,-1.052785,2.280243,1.760353
23001953,24096,20306,-4518,-10,12,4,-1.051957,2.280016,1.759494
23017579,24202,20250,-4574,-17,2,-1,-1.052560,2.279975,1.759987
23033205,24314,20170,-4740,-20,21,0,-1.052790,2.280045,1.760206
23048832,24168,20104,-4846,-18,40,3,-1.052981,2.279826,1.760371
23064457,24094,20162,-4830,1,41,4,-1.053122,2.279647,1.760427
23080084,24112,20378,-4714,19,18,10,-1.053701,2.279467,1.760934
23095711,24224,20510,-4720,16,7,11,-1.054304,2.279299,1.761630
23111338,24298,20468,-4654,-14,15,5,-1.055488,2.279348,1.762771
23126965,24238,20372,-4704,-43,39,0,-1.055341,2.279258,1.762574
23142591,24134,20262,-4648,-66,42,-5,-1.054823,2.279279,1.762102
23158218,24110,20238,-4658,-66,31,-3,-1.053707,2.279269,1.760786
23173844,24148,20142,-4606,-34,14,4,-1.053522,2.279287,1.760473
23189469,24248,20150,-4758,2,14,7,-1.053829,2.279068,1.760573
23205095,24198,20214,-4792,13,29,5,-1.054419,2.278958,1.761073
23220722,24144,20372,-4860,2,31,6,-1.055263,2.278739,1.761914
23236348,24134,20482,-4756,-10,22,10,-1.055529,2.278700,1.762249
23251974,24180,20462,-4676,-30,23,2,-1.056048,2.278679,1.762721
23267601,24230,20384,-4640,-44,26,-1,-1.055654,2.278841,1.762527
23283227,24244,20158,-4782,-59,29,-1,-1.055494,2.278808,1.762133
23298853,24110,20096,-4678,-51,39,-5,-1.054691,2.278720,1.761260
23314480,24008,20092,-4656,-18,28,1,-1.054530,2.278688,1.760866
23330107,24068,20274,-4796,14,3,11,-1.054867,2.278559,1.761229
23345733,24264,20394,-4850,23,-1,13,-1.055701,2.278461,1.762145
23361360,24264,20408,-4758,2,13,13,-1.057557,2.278380,1.763810
23376986,24188,20376,-4752,-28,29,7,-1.057892,2.278252,1.764173
23392611,24128,20346,-4812,-48,37,4,-1.057745,2.278162,1.763976
23408236,24044,20316,-4874,-53,31,8,-1.057116,2.278112,1.763219
23423861,24084,20314,-4718,-53,16,9,-1.057003,2.278041,1.762935
23439488,24180,20338,-4612,-45,5,12,-1.057057,2.277930,1.762694
23455115,24258,20306,-4710,-49,12,10,-1.057175,2.277929,1.762628
23470742,24230,20206,-4768,-45,28,8,-1.057334,2.277747,1.762328
23486369,24194,20112,-4878,-6,21,13,-1.057234,2.277620,1.762241
23501995,24228,20190,-4884,25,14,17,-1.058338,2.277221,1.763075
23517620,24148,20500,-4794,24,22,20,-1.060117,2.276835,1.764777
23533246,24122,20658,-4596,-22,29,16,-1.060346,2.276778,1.765200
23548873,24082,20576,-4478,-83,27,8,-1.059934,2.276727,1.764667
23564499,24108,20204,-4648,-117,15,0,-1.059269,2.276784,1.763793
23580125,24182,19992,-4926,-82,4,-3,-1.058029,2.276948,1.762062
23595751,24298,19988,-4932,-29,7,6,-1.058230,2.276927,1.762018
23611378,24176,20196,-4688,2,22,23,-1.059515,2.276559,1.762892
23627004,23992,20400,-4434,5,23,24,-1.060029,2.276270,1.763225
23642631,24058,20388,-4602,-12,-5,8,-1.060436,2.276053,1.763618
23658257,24260,20248,-4810,-29,-13,0,-1.061203,2.276173,1.764305
23673883,24394,20180,-5032,-17,10,6,-1.061774,2.276242,1.764685
23689508,24274,20312,-4960,4,31,21,-1.062763,2.276038,1.765655
23705133,24070,20528,-4632,-1,34,26,-1.063529,2.275769,1.766128
23720759,24024,20622,-4374,-52,12,17,-1.063669,2.275589,1.766186
23736385,24208,20424,-4392,-103,-11,2,-1.063270,2.275607,1.765646
23752011,24488,20116,-4742,-105,-8,-8,-1.062391,2.275981,1.764411
23767636,24472,19950,-4810,-58,44,3,-1.061880,2.275854,1.763237
23783263,24140,20100,-4682,-7,59,17,-1.061580,2.275674,1.762843
23798890,23840,20238,-4370,16,37,22,-1.061513,2.275048,1.762658
23814517,23888,20326,-4498,8,-12,10,-1.061874,2.274869,1.762941
23830143,24262,20346,-4844,-4,-31,5,-1.063014,2.275080,1.764052
23845769,24440,20318,-4882,-16,3,9,-1.064052,2.275164,1.765075
23861396,24252,20322,-4760,-21,43,16,-1.064707,2.275087,1.765683
23877023,24030,20300,-4694,-16,43,18,-1.064650,2.274856,1.765433
23892648,24126,20404,-4674,-26,3,14,-1.064534,2.274658,1.765353
23908275,24316,20326,-4704,-34,0,15,-1.065262,2.274619,1.765785
23923901,24352,20320,-4824,-42,14,18,-1.065454,2.274528,1.765749
23939528,24328,20238,-4778,-44,27,20,-1.065954,2.274219,1.765817
23955155,24226,20312,-4708,-28,30,21,-1.065911,2.274057,1.765562
23970780,24220,20318,-4544,-34,29,16,-1.065985,2.273768,1.765446
23986406,24202,20374,-4556,-49,17,9,-1.065685,2.273588,1.765051
24002032,24282,20274,-4708,-51,6,2,-1.065318,2.273624,1.764424
24017658,24386,20220,-4838,-33,21,6,-1.065368,2.273712,1.764331
24033284,24276,20206,-4740,-17,31,11,-1.065607,2.273583,1.764405
24048909,24190,20256,-4648,-1,26,12,-1.066075,2.273333,1.764631
24064535,24136,20458,-4684,6,15,9,-1.066085,2.273277,1.764829
24080161,24122,20510,-4640,-24,11,5,-1.066761,2.273349,1.765501
24095787,24226,20428,-4744,-59,14,6,-1.066621,2.273528,1.765443
24111414,24308,20258,-4764,-58,16,8,-1.066231,2.273615,1.764897
24127041,24254,20124,-4744,-44,26,7,-1.066154,2.273561,1.764525
24142668,24148,20132,-4666,-38,33,16,-1.066194,2.273380,1.764293
24158295,24058,20360,-4618,-14,8,17,-1.066374,2.273020,1.764118
24173921,24250,20512,-4604,-25,-7,13,-1.066610,2.273090,1.764338
24189548,24386,20396,-4666,-57,1,13,-1.067165,2.273212,1.764802
24205174,24416,20116,-4702,-71,19,8,-1.067065,2.273210,1.764511
24220801,24298,20038,-4656,-52,31,7,-1.066851,2.272936,1.763791
24236427,24152,20062,-4734,-21,28,12,-1.066806,2.272775,1.763535
24252053,24106,20264,-4694,7,14,17,-1.066994,2.272558,1.763704
24267680,24192,20572,-4694,3,8,20,-1.067523,2.272540,1.764180
24283306,24278,20532,-4538,-65,16,11,-1.068358,2.272503,1.764905
24298933,24282,20256,-4550,-88,17,3,-1.067472,2.272625,1.763796
24314559,24362,19962,-4730,-82,22,4,-1.066839,2.272641,1.763029
24330186,24296,19922,-4662,-41,25,9,-1.066502,2.272494,1.762169
24345813,24300,20074,-4668,17,20,12,-1.066527,2.272243,1.761943
24361440,24278,20404,-4626,33,17,19,-1.067635,2.272043,1.763210
24377067,24256,20500,-4702,6,12,17,-1.068800,2.271810,1.764308
24392693,24300,20430,-4740,-27,11,7,-1.069190,2.271972,1.764725
24408319,24292,20268,-4616,-56,21,7,-1.069241,2.272060,1.764632
24423946,24224,20262,-4512,-49,25,9,-1.068795,2.272058,1.764179
24439572,24222,20228,-4474,-39,20,5,-1.068255,2.271932,1.763360
24455199,24298,20224,-4542,-34,16,5,-1.068221,2.272039,1.763243
24470825,24308,20164,-4686,-24,25,6,-1.068152,2.271929,1.763069
24486452,24292,20198,-4814,-12,27,7,-1.068152,2.271929,1.763069
24502078,24194,20224,-4726,9,25,13,-1.068494,2.271803,1.763436
24517705,24216,20380,-4726,20,8,17,-1.069590,2.271660,1.764505
24533330,24286,20442,-4572,-34,14,8,-1.070121,2.271642,1.764981
24548956,24296,20368,-4626,-62,30,5,-1.069865,2.271749,1.764638
24564582,24252,20252,-4694,-65,32,5,-1.069300,2.271874,1.764045
24580208,24224,20206,-4708,-61,28,5,-1.068511,2.271799,1.763081
24595834,24184,20132,-4616,-35,18,9,-1.068324,2.271816,1.762767
24611461,24272,20214,-4662,-9,9,14,-1.068515,2.271725,1.762732
24627087,24320,20364,-4592,-13,8,13,-1.068895,2.271616,1.763011
24642714,24320,20348,-4526,-25,21,9,-1.069512,2.271579,1.763511
24658339,24260,20238,-4696,-23,29,5,1.080571,-0.562743,0.662052
24673966,24282,20252,-4704,-19,30,7,-1.069096,2.271470,1.763175
24689592,24218,20292,-4528,-24,26,9,-1.069096,2.271470,1.763175
24705219,24178,20248,-4434,-35,14,13,-1.069204,2.271398,1.763117
24720846,24332,20160,-4590,-27,-6,6,-1.069100,2.271395,1.762826
24736472,24490,20148,-4852,-1,2,4,-1.069648,2.271448,1.763296
24752099,24466,20246,-4800,14,32,11,-1.070762,2.271376,1.764360
24767725,24174,20364,-4648,19,46,17,-1.071454,2.271002,1.765019
24783351,24068,20474,-4536,-2,29,16,-1.071332,2.271003,1.765083
24798978,24298,20370,-4660,-37,-12,5,-1.071500,2.271164,1.765274
24814604,24550,20288,-4924,-49,4,2,-1.071706,2.271343,1.765377
24830231,24428,20170,-4850,-49,47,6,-1.071843,2.271411,1.765307
24845857,24120,20224,-4712,-40,60,10,-1.071380,2.271339,1.764860
24861484,24060,20336,-4602,-41,31,19,-1.070585,2.271071,1.763826
24877109,24230,20388,-4462,-58,-4,12,-1.070408,2.271032,1.763711
24892736,24484,20264,-4624,-58,-10,7,-1.070392,2.271135,1.763239
24908363,24620,20174,-4796,-49,18,3,-1.070490,2.271185,1.763257
24923989,24218,20122,-4676,-43,56,7,-1.070564,2.271021,1.762938
24939614,23988,20178,-4528,-15,34,9,-1.069657,2.270825,1.761962
24955241,24122,20308,-4634,9,-5,14,-1.069620,2.270807,1.762050
24970867,24338,20320,-4732,5,-15,15,-1.071171,2.270915,1.763444
24986494,24538,20358,-4790,7,7,13,-1.072064,2.270842,1.764282
25002120,24392,20434,-4666,-4,38,10,-1.072810,2.270823,1.765265
25017746,24132,20322,-4620,-38,46,13,-1.072392,2.270646,1.764655
25033373,24056,20300,-4644,-60,28,11,-1.071895,2.270681,1.764091
25049000,24278,20312,-4682,-52,5,6,-1.071495,2.270766,1.763544
25064626,24394,20298,-4664,-51,6,7,-1.071438,2.270926,1.763509
25080251,24428,20226,-4698,-49,16,10,-1.071526,2.270832,1.763184
25095878,24360,20160,-4666,-39,26,9,-1.071671,2.270778,1.763038
25111505,24252,20164,-4568,-26,23,7,-1.071336,2.270648,1.762726
25127131,24306,20192,-4648,-10,16,13,-1.071444,2.270576,1.762668
25142757,24272,20300,-4708,7,7,18,-1.072100,2.270433,1.763286
25158383,24276,20404,-4730,6,8,19,-1.072949,2.270398,1.764013
25174010,24372,20496,-4684,-26,20,15,-1.073806,2.270308,1.764939
25189635,24314,20370,-4588,-57,23,8,-1.073882,2.270344,1.764764
25205260,24260,20294,-4622,-67,21,3,-1.073429,2.270341,1.764311
25220885,24262,20164,-4662,-68,28,7,-1.072442,2.270480,1.763175
25236511,24256,20200,-4648,-56,22,14,-1.072095,2.270405,1.762664
25252138,24344,20252,-4624,-33,16,10,-1.072205,2.270258,1.762258
25267765,24370,20244,-4612,-19,13,8,-0.977873,0.956841,-1.508702
25283392,24396,20284,-4556,-21,14,11,-1.072602,2.270221,1.762532
25299018,24310,20138,-4570,-28,26,8,-1.072757,2.270111,1.762586
25314645,24240,20150,-4728,-11,24,11,-1.072600,2.270020,1.762389
25330270,24268,20376,-4798,11,16,14,-1.073211,2.269915,1.762896
25345895,24292,20570,-4648,0,9,13,-1.073799,2.269861,1.763484
25361521,24398,20484,-4582,-37,13,10,-1.074425,2.270025,1.764128
25377146,24426,20306,-4622,-77,25,3,-1.074126,2.270113,1.763872
25392772,24274,20120,-4612,-96,42,3,-1.073014,2.270177,1.762452
25408399,24176,20046,-4526,-66,34,3,-1.072123,2.270119,1.761464
25424026,24238,20162,-4568,-16,7,10,-1.071532,2.270098,1.760527
25439652,24364,20276,-4672,9,9,15,-1.072555,2.269899,1.761507
25455279,24308,20302,-4654,-9,23,13,-1.073098,2.269882,1.761984
25470905,24304,20300,-4716,-22,27,13,-1.073445,2.269758,1.762352
25486531,24292,20276,-4652,-21,25,10,-1.073445,2.269758,1.762352
25502157,24316,20308,-4596,-24,15,7,-1.073867,2.269668,1.762545
25517783,24366,20394,-4562,-42,15,8,-1.073796,2.269757,1.762515
25533408,24300,20334,-4596,-65,23,5,-1.073351,2.269824,1.762056
25549034,24264,20158,-4630,-75,26,0,-1.072881,2.269875,1.761403
25564660,24286,20072,-4658,-41,18,2,-1.071879,2.270013,1.760268
25580287,24312,20118,-4662,-2,13,12,-1.072047,2.269973,1.760316
25595914,24364,20274,-4750,27,9,17,-1.072663,2.269868,1.760822
25611540,24336,20416,-4628,19,14,14,-1.074378,2.269675,1.762483
25627166,24300,20484,-4560,-18,24,12,-1.074766,2.269768,1.762907
25642798,24298,20430,-4534,-50,27,8,-1.074537,2.269766,1.762680
25658425,24312,20322,-4652,-66,25,3,-1.074189,2.269891,1.762312
25674050,24356,20246,-4704,-75,28,-2,-1.073187,2.270028,1.761176
25689676,24398,20180,-4642,-56,28,3,-1.072300,2.270039,1.760182
25705303,24372,20176,-4538,-35,20,2,-1.072105,2.270054,1.759867
25720929,24354,20168,-4458,-13,19,2,-1.072142,2.270072,1.759780
25736555,24290,20102,-4522,-5,21,4,-1.072142,2.270072,1.759780
25752182,24296,20124,-4784,4,22,9,-1.072760,2.269966,1.760287
25767809,24268,20314,-4756,22,22,9,-1.073779,2.269899,1.761416
25783434,24230,20470,-4704,24,23,12,-1.074203,2.269885,1.761957
25799060,24198,20568,-4586,-17,19,11,-1.074710,2.269851,1.762522
25814686,24316,20418,-4518,-84,18,5,-1.074497,2.270120,1.762432
25830312,24420,20272,-4588,-89,28,2,-1.073300,2.270272,1.760982
25845939,24338,20074,-4516,-81,40,-2,-1.072486,2.270393,1.760161
25861566,24286,19998,-4548,-55,38,3,-1.071178,2.270296,1.758551
25877192,24284,20040,-4614,-10,24,9,-1.071054,2.270222,1.758266
25892817,24288,20162,-4696,21,15,11,-1.071747,2.270027,1.758803
25908444,24280,20338,-4660,32,17,14,-1.072378,2.269867,1.759509
25924071,24340,20542,-4708,22,13,16,-1.073791,2.269893,1.761062
25939697,24326,20582,-4584,-29,22,2,-1.074301,2.269859,1.761627
25955323,24370,20318,-4580,-71,27,-2,-1.074049,2.270110,1.761624
25970949,24356,20122,-4676,-73,30,-1,-1.072923,2.270373,1.760347
25986575,24356,20050,-4772,-51,33,-1,-1.072567,2.270298,1.759836
26002201,24296,20078,-4574,-10,30,2,-1.072055,2.270331,1.759272
26017827,24294,20310,-4686,11,25,13,-1.072288,2.270333,1.759498
26033453,24252,20322,-4666,-11,23,16,-1.073150,2.270175,1.760431
26049079,24264,20362,-4598,-24,23,5,-1.073150,2.270175,1.760431
26064705,24304,20374,-4584,-37,23,0,-1.073079,2.270264,1.760401
26080332,24294,20250,-4474,-54,23,1,-1.072693,2.270495,1.759915
26095957,24358,20078,-4564,-52,23,-1,-1.072228,2.270492,1.759462
26111584,24374,20124,-4616,-32,25,-1,-1.071799,2.270505,1.758921
26127210,24316,20216,-4710,-8,34,3,-1.071799,2.270505,1.758921
26142837,24202,20352,-4616,12,34,10,-1.071995,2.270490,1.759236
26158463,24188,20372,-4614,11,21,7,-1.072144,2.270512,1.759438
26174088,24278,20326,-4670,-11,15,5,-1.072708,2.270641,1.760257
26189714,24362,20234,-4678,-25,17,8,-1.073024,2.270623,1.760507
26205340,24416,20318,-4698,-22,26,6,-1.073268,2.270695,1.760728
26220966,24324,20412,-4682,-24,38,6,-1.073377,2.270623,1.760670
26236591,24222,20354,-4586,-48,40,4,-1.073061,2.270641,1.760419
26252218,24198,20258,-4492,-59,28,1,-1.071892,2.270762,1.759436
26267845,24214,20086,-4626,-52,22,1,-1.071648,2.270815,1.759010
26283471,24302,20028,-4598,-34,15,1,-1.071194,2.270881,1.758551
26299098,24358,20152,-4758,-5,16,5,-1.071499,2.270917,1.758602
26314724,24372,20330,-4684,17,27,11,-1.072449,2.270740,1.759558
26330351,24278,20392,-4512,-6,36,8,-1.072913,2.270619,1.760217
26345978,24280,20434,-4440,-35,28,4,-1.072757,2.270728,1.760163
26361604,24302,20290,-4654,-56,19,2,-1.072173,2.270851,1.759569
26377231,24264,20080,-4702,-45,23,2,-1.071905,2.270956,1.759224
26392856,24344,20084,-4836,-19,39,9,-1.071827,2.270845,1.759052
26408482,24286,20238,-4818,-7,49,20,-1.071971,2.270666,1.759112
26424108,24098,20566,-4624,-13,47,23,-1.072175,2.270329,1.759208
26439735,24106,20580,-4408,-53,23,17,-1.071978,2.270220,1.759099
26455362,24394,20320,-4418,-97,4,-2,-1.071232,2.270376,1.758102
26470988,24564,19938,-4696,-92,15,-5,-1.070269,2.270669,1.756867
26486614,24462,19856,-4738,-54,48,1,-1.069942,2.270611,1.756268
26502240,24146,19880,-4632,-2,57,17,-1.069479,2.270286,1.755597
26517866,24010,20276,-4464,46,32,19,-1.069662,2.270000,1.755774
26533492,24156,20640,-4484,40,-3,14,-1.070885,2.269848,1.757223
26549119,24388,20540,-4544,-4,-16,5,-1.071807,2.269977,1.758206
26564745,24542,20294,-4758,-40,11,-2,-1.072865,2.270373,1.759260
26580371,24382,20098,-4760,-48,58,-2,-3.141587,0.002692,0.008039
26595998,24072,20196,-4678,-18,52,6,-1.071847,2.270385,1.758330
26611624,24090,20316,-4568,4,14,11,-1.071518,2.270334,1.758086
26627250,24280,20388,-4592,2,-2,6,-1.072159,2.270498,1.758729
26642876,24346,20322,-4610,-39,15,5,-1.072822,2.270678,1.759565
26658503,24350,20262,-4652,-69,38,6,-1.072858,2.270695,1.759478
26674130,24266,20202,-4650,-47,41,3,-1.071667,2.270671,1.758152
26689755,24198,20216,-4648,-17,22,0,-1.071432,2.270669,1.757926
26705382,24358,20288,-4672,-25,15,7,-1.071864,2.270779,1.758261
26721008,24310,20206,-4638,-44,36,9,-1.071996,2.270722,1.758396
26736635,24184,20152,-4678,-33,45,4,-1.071714,2.270757,1.758058
26752261,24124,20334,-4622,-17,33,5,-1.071234,2.270684,1.757612
26767887,24226,20342,-4492,-19,5,7,-1.071078,2.270793,1.757558
26783512,24382,20136,-4592,-28,-1,7,-1.071569,2.270936,1.757998
26799139,24522,20178,-4824,-22,21,5,-1.071971,2.270898,1.758272
26814765,24406,20280,-4780,-2,51,3,-1.072361,2.270791,1.758552
26830392,24158,20372,-4736,21,55,4,-1.072314,2.270704,1.758646
26846018,24132,20418,-4742,-13,31,3,-1.072469,2.270802,1.759197
26861644,24126,20286,-4758,-46,35,0,-1.072241,2.271001,1.759113
26877271,24272,20284,-4792,-9,43,-15,-1.071779,2.271197,1.758803
26892897,24254,20452,-4728,38,45,-21,-1.071436,2.271598,1.758926
26908524,24254,20340,-4536,8,42,-11,-1.071482,2.271892,1.759329
26924151,24226,20040,-4546,-51,40,-5,-1.070709,2.272183,1.759118
26939777,24360,19964,-4782,-20,46,-9,-1.070087,2.272288,1.758612
26955404,24346,20090,-4842,109,76,-8,-1.069872,2.272241,1.758660
26971030,24138,20472,-4794,213,82,10,-1.071506,2.271910,1.761482
26986657,24042,20540,-4856,143,57,5,-1.072683,2.271962,1.763428
27002284,24146,20476,-4908,42,50,1,-1.073994,2.272179,1.765919
27017911,24282,20376,-4806,9,56,-1,-1.073987,2.272254,1.766267
27033538,24326,20348,-4870,87,77,-8,-1.073460,2.272367,1.766406
27049164,24200,20540,-4914,132,91,-11,-1.073468,2.272464,1.767022
27064798,23986,20476,-4656,27,92,-18,-1.073258,2.272732,1.768096
27080424,23854,20056,-4686,-71,57,-25,-1.072208,2.272987,1.767555
27096050,24090,19868,-5002,-8,21,-28,-1.069977,2.273651,1.765794
27111677,24220,19982,-5054,145,26,-17,-1.070595,2.274158,1.766921
27127304,24172,20212,-5068,241,36,-3,-1.072124,2.274237,1.769131
27142930,23972,20494,-5030,232,45,-6,-1.075753,2.274401,1.774584
27158556,23828,20508,-5034,190,20,-3,-1.077249,2.274571,1.777053
27174181,23960,20412,-5156,176,-13,-4,-1.080089,2.275289,1.781716
27189808,24110,20354,-5220,190,-23,-18,-1.082197,2.275571,1.784388
27205435,24226,20444,-5330,238,-10,-19,-1.085964,2.276387,1.790064
27221062,24144,20568,-5374,243,7,-7,-1.090102,2.277138,1.796484
27236688,24080,20580,-5358,191,-4,-6,-1.091927,2.277405,1.799302
27252313,23994,20578,-5376,188,-27,-6,-1.095155,2.278064,1.804277
27267939,24120,20642,-5584,191,-42,-10,-1.096944,2.278516,1.806962
27283566,24166,20696,-5666,172,-32,-18,-1.100747,2.279464,1.812651
27299192,24076,20678,-5598,184,-10,-15,-1.102296,2.279917,1.815105
27314818,24032,20592,-5684,220,-11,-4,-1.105106,2.280838,1.820050
27330444,24036,20606,-5832,254,-20,1,-1.106827,2.281131,1.822770
27346069,24122,20712,-6026,250,-24,-5,-1.111024,2.281714,1.829401
27361695,24164,20798,-6000,240,-12,-6,-1.114965,2.282518,1.835848
27377322,24064,20864,-5944,251,-10,-1,-1.116590,2.282979,1.838805
27392948,23938,20876,-5954,267,-11,8,-1.119911,2.283664,1.844710
27408574,23930,20810,-6022,263,-22,7,-1.121588,2.283945,1.847732
27424200,24024,20856,-6232,221,-41,-6,-1.125164,2.284609,1.853897
27439827,24140,20826,-6422,187,-40,-15,-1.126782,2.285172,1.856742
27455453,24194,20788,-6450,206,-24,-5,-1.129593,2.286330,1.861867
27471079,24082,20786,-6474,274,-24,16,-1.131163,2.286621,1.864589
27486705,23830,20766,-6582,282,-19,41,-1.135113,2.287018,1.871316
27502331,23604,20662,-6588,244,-9,67,-1.139298,2.286878,1.877971
27517958,23650,20586,-6758,301,-39,97,-1.141465,2.286607,1.881180
27533585,23876,20790,-7188,417,-105,98,-1.147987,2.285780,1.890074
27549210,24436,21260,-7344,462,-161,71,-1.152426,2.285737,1.896404
27564836,24860,21440,-7272,431,-164,57,-1.162351,2.286352,1.910568
27580462,25100,21342,-7490,425,-110,60,-1.166536,2.286713,1.916960
27596089,25166,21342,-7958,424,-14,44,-1.173463,2.286792,1.928164
27611715,25342,21508,-10192,274,165,-3,-1.176681,2.286583,1.935956
27627342,24956,21770,-9750,94,318,-64,-1.175918,2.286671,1.937202
27642967,23722,22432,-7046,288,307,-20,-1.169833,2.286820,1.934473
27658592,22762,21922,-5072,396,197,98,-1.167096,2.286701,1.933950
27674218,22362,21354,-4632,118,92,34,-1.163545,2.285439,1.933853
27689845,23224,21084,-5970,-247,-61,-99,-1.160723,2.285989,1.931269
27705472,24572,20678,-7548,-311,-132,-134,-1.154256,2.289864,1.923505
27721099,25460,20612,-8208,-137,-111,-83,-1.152603,2.291888,1.921232
27736726,25454,20890,-8038,80,29,13,-1.153487,2.293717,1.922076
27752352,24644,21102,-7594,130,141,36,-1.153580,2.292985,1.922642
27767978,23772,21276,-7390,57,170,18,-1.152552,2.292342,1.922276
27783605,23246,21298,-7674,26,105,7,-1.148978,2.291889,1.919524
27799232,23378,21156,-7916,58,-6,-4,-1.147726,2.292311,1.918784
27814859,23954,21172,-7964,97,-83,-23,-1.148015,2.293997,1.920872
27830485,24462,21318,-7940,98,-78,-30,-1.148984,2.295058,1.922884
27846110,24630,21258,-7476,69,-19,-28,-1.150337,2.297039,1.926159
27861737,24384,21188,-7236,102,42,-14,-1.149902,2.297783,1.927048
27877362,24120,21220,-7494,90,67,-11,-1.149293,2.297986,1.927188
27892987,23986,21146,-7752,57,61,-27,-1.147404,2.298491,1.926721
27908613,23850,21116,-7732,59,29,-42,-1.146524,2.298968,1.926522
27924239,23908,21102,-7638,114,-1,-37,-1.145000,2.300547,1.926856
27939865,24024,21172,-7672,153,-16,-22,-1.145032,2.301268,1.928026
27955492,24044,21168,-7774,144,-15,-18,-1.145555,2.302521,1.930905
27971118,24078,21130,-8020,138,-14,-32,-1.145914,2.303052,1.932390
27986744,24142,21216,-8268,191,-16,-41,-1.146408,2.304524,1.935306
28002370,24180,21260,-8372,244,-11,-25,-1.147546,2.306108,1.939769
28017997,24178,21476,-8264,279,1,-17,-1.148505,2.306722,1.942634
28033623,24052,21716,-8112,230,30,-16,-1.149949,2.307802,1.947855
28049249,23880,21472,-7986,188,41,-5,-1.150074,2.308261,1.949545
28064876,23818,21388,-8180,188,9,-13,-1.149913,2.308981,1.952112
28080501,23988,21474,-8626,177,-15,-36,-1.150173,2.309549,1.953692
28096128,24178,21548,-8792,136,-7,-43,-1.150440,2.311280,1.956980
28111755,24308,21522,-8772,132,17,-38,-1.150470,2.312093,1.958315
28127381,24284,21612,-8710,135,63,-39,-1.150035,2.313412,1.960246
28143006,24184,21672,-8798,107,105,-41,-1.148446,2.314254,1.961051
28158633,23892,21632,-8778,51,127,-47,-1.147014,2.314647,1.960616
28174260,23792,21560,-8778,12,109,-59,-1.143308,2.315462,1.958303
28189887,23838,21458,-8770,17,76,-59,-1.141401,2.316133,1.957089
28205513,23872,21390,-8590,39,66,-49,-1.138519,2.317460,1.955614
28221138,23964,21382,-8444,56,72,-42,-1.136085,2.318538,1.954623
28236765,23902,21278,-8490,66,80,-35,-1.134865,2.318800,1.954146
28252392,23858,21244,-8818,85,76,-31,-1.132938,2.319317,1.953628
28268019,23862,21372,-8874,115,69,-37,-1.132147,2.319607,1.953733
28283645,23836,21610,-8934,125,67,-41,-1.131197,2.320489,1.954865
28299272,23830,21810,-8944,103,76,-31,-1.130422,2.321033,1.955384
28314899,23602,21776,-8872,58,89,-14,-1.128861,2.321799,1.955743
28330525,23556,21636,-8788,21,88,-3,-1.127802,2.322119,1.955310
28346151,23538,21468,-8954,-15,80,-11,-1.125635,2.322440,1.953802
28361777,23656,21516,-9144,-21,66,-33,-1.124540,2.322782,1.952857
28377403,23752,21446,-9332,-9,57,-48,-1.122354,2.323845,1.951508
28393030,23860,21350,-9234,-17,58,-43,-1.120419,2.325088,1.950543
28408656,23798,21220,-8828,-8,83,-36,-1.119662,2.325487,1.950119
28424281,23576,21322,-8716,78,108,-15,-1.117529,2.325940,1.948708
28439908,23376,21414,-8862,113,91,3,-1.116816,2.325860,1.948750
28455535,23420,21368,-9086,69,39,-1,-1.116053,2.325956,1.949646
28471161,23700,21366,-9250,52,0,-25,-1.116087,2.326874,1.951088
28486787,23830,21440,-9328,67,13,-45,-1.116143,2.327502,1.952003
28502413,23794,21674,-9210,79,61,-43,-1.115454,2.328791,1.953328
28518039,23724,21668,-9124,50,70,-21,-1.114802,2.329260,1.953604
28533665,23614,21680,-9286,15,59,-11,-1.113654,2.329782,1.953527
28549292,23628,21518,-9342,-25,45,-18,-1.112866,2.330122,1.953291
28564918,23552,21284,-9114,-8,29,-26,-1.111773,2.330935,1.952617
28580545,23592,21206,-8950,46,23,-28,-1.111472,2.331319,1.952666
28596171,23482,21282,-8930,81,36,-23,-1.111058,2.332031,1.953592
28611797,23420,21338,-9134,90,44,-11,-1.110792,2.332392,1.954153
28627423,23548,21532,-9464,101,11,-22,-1.110806,2.332851,1.955752
28643049,23696,21610,-9608,119,-13,-40,-1.111422,2.333911,1.958532
28658675,23824,21658,-9660,107,-9,-46,-1.111762,2.334812,1.960212
28674302,23802,21594,-9520,64,20,-35,-1.112283,2.336245,1.963056
28689928,23634,21430,-9418,64,45,-27,-1.112217,2.336751,1.963629
28705554,23384,21560,-9422,85,50,-34,-1.111473,2.337443,1.964613
28721180,23236,21582,-9612,83,37,-36,-1.110769,2.338384,1.965771
28736806,23262,21564,-9708,85,-8,-34,-1.110699,2.339139,1.966755
28752432,23520,21610,-9812,84,-61,-34,-1.110961,2.339944,1.968037
28768059,23772,21450,-9614,86,-62,-14,-1.112216,2.341814,1.971609
28783684,23826,21260,-9504,115,-20,-2,-1.114183,2.342860,1.975241
28799310,23596,21428,-9406,165,37,-1,-1.114904,2.342912,1.976828
28814936,23310,21654,-9522,166,74,-5,-1.115619,2.342796,1.979742
28830562,23152,21792,-9576,109,54,-8,-1.115496,2.342904,1.980745
28846189,23184,21816,-9698,70,10,-11,-1.115039,2.343459,1.982059
28861815,23460,21852,-9884,44,-5,-21,-1.114983,2.343992,1.982778
28877442,23676,21868,-9902,11,-2,-18,-1.114845,2.345090,1.983914
28893068,23720,21646,-9916,-61,20,-1,-1.114576,2.345842,1.984035
28908695,23676,21422,-9942,-75,45,-4,-1.114113,2.345944,1.983332
28924321,23534,21448,-9830,-37,73,-16,-1.112835,2.345973,1.981545
28939948,23374,21572,-9848,1,82,-6,-1.111960,2.345995,1.980632
28955574,23238,21616,-9864,-30,64,11,-1.110559,2.345943,1.979499
28971201,23242,21330,-9914,-53,25,-2,-1.110242,2.345890,1.978997
