elbow_0
Module: E0:5A:1B:76:00:58 (06)
t(us),ax,ay,az,gx,gy,gz,y,p,r
0,23446,18622,-1734,-42,28,8,-0.000175,0.006959,0.015259
15627,23468,18594,-1766,-45,26,5,-0.000825,0.028568,0.032111
31254,23492,18632,-1776,-48,25,7,-0.001291,0.039556,0.040545
46881,23492,18602,-1756,-52,27,6,-0.002494,0.061409,0.057319
62507,23524,18560,-1728,-50,31,7,-0.003235,0.072272,0.065786
78134,23474,18556,-1736,-43,37,4,-0.004864,0.093995,0.082531
93761,23420,18496,-1696,-36,40,7,-0.005879,0.104730,0.091050
109388,23410,18468,-1756,-19,31,6,-0.008185,0.126076,0.108161
125014,23480,18556,-1782,-8,20,8,-0.010903,0.147651,0.125629
140640,23586,18556,-1788,-9,17,9,-0.012427,0.158501,0.134542
156267,23594,18636,-1832,-11,24,8,-0.015765,0.180177,0.152346
171893,23570,18672,-1748,-19,31,8,-0.017575,0.190891,0.161249
187519,23524,18660,-1814,-29,37,7,-0.021440,0.211930,0.178921
203144,23442,18640,-1780,-39,33,2,-0.023502,0.222374,0.187695
218770,23464,18598,-1758,-41,31,0,-0.027775,0.243139,0.205177
234396,23458,18460,-1708,-34,26,4,-0.032369,0.263616,0.222472
250022,23556,18482,-1790,-15,21,8,-0.034774,0.273901,0.231284
265649,23504,18532,-1730,3,25,8,-0.040149,0.294347,0.249179
281274,23534,18642,-1760,-1,29,9,-0.043137,0.304402,0.258402
296899,23442,18648,-1780,-21,29,9,-0.049079,0.324188,0.276670
312524,23460,18606,-1790,-44,29,7,-0.052152,0.334058,0.285577
328149,23420,18590,-1784,-44,28,7,-0.058369,0.353433,0.303126
343775,23424,18610,-1780,-34,24,7,-0.061665,0.362925,0.311982
359401,23498,18630,-1736,-34,22,9,-0.068435,0.381956,0.329811
375027,23550,18568,-1750,-45,23,11,-0.075541,0.400605,0.347697
390654,23520,18518,-1778,-41,23,9,-0.079224,0.409800,0.356403
406281,23562,18434,-1660,-30,28,8,-0.086792,0.428005,0.374219
421906,23452,18514,-1684,-20,33,9,-0.090761,0.436928,0.383169
437533,23418,18536,-1670,-11,27,6,-0.098969,0.454347,0.401414
453159,23488,18646,-1836,-6,13,9,-0.103207,0.462969,0.410594
468785,23612,18676,-1766,-16,8,10,-0.112061,0.480281,0.429262
484411,23538,18648,-1768,-32,25,6,-0.116441,0.488696,0.438599
500037,23478,18654,-1796,-35,32,7,-0.125462,0.505307,0.456840
515663,23430,18562,-1734,-37,30,6,-0.134637,0.521118,0.475052
531289,23446,18592,-1764,-29,23,6,-0.139243,0.528878,0.484100
546916,23494,18568,-1804,-33,17,9,-0.148671,0.544189,0.502295
562543,23548,18558,-1676,-37,20,5,-0.153695,0.551914,0.511464
578168,23610,18552,-1734,-33,26,5,-0.163510,0.566675,0.529633
593795,23490,18536,-1846,-29,30,4,-0.168488,0.573839,0.538747
609421,23446,18578,-1796,-26,18,4,-0.178583,0.587867,0.556918
625051,23508,18572,-1720,-27,13,7,-0.189042,0.601657,0.575449
640677,23554,18536,-1756,-28,13,7,-0.194350,0.608493,0.584586
656303,23570,18608,-1692,-38,19,6,-0.205223,0.621773,0.602870
671930,23504,18582,-1752,-42,26,7,-0.210485,0.628165,0.611959
687556,23426,18534,-1752,-32,31,9,-0.221291,0.640594,0.629908
703181,23392,18540,-1840,-23,26,9,-0.226861,0.646611,0.638896
718806,23426,18534,-1736,-26,17,11,-0.238054,0.658403,0.657270
734432,23554,18584,-1724,-34,12,6,-0.243756,0.664243,0.666200
750058,23580,18570,-1688,-36,18,6,-0.255049,0.675663,0.684370
765683,23548,18560,-1660,-36,20,5,-0.266317,0.686543,0.702266
781308,23524,18530,-1696,-29,26,3,-0.271997,0.691798,0.711093
796934,23506,18480,-1748,-17,26,6,-0.283559,0.702016,0.728962
812561,23424,18546,-1768,-7,23,10,-0.289497,0.706991,0.737899
828188,23474,18604,-1652,-3,18,9,-0.301613,0.716753,0.756019
843815,23500,18618,-1826,-13,21,11,-0.307570,0.721458,0.765184
859441,23492,18640,-1782,-28,27,10,-0.319697,0.730664,0.782973
875068,23418,18536,-1692,-39,27,10,-0.331320,0.739277,0.800277
890694,23470,18506,-1776,-41,17,11,-0.337006,0.743495,0.808780
906319,23522,18484,-1802,-29,11,8,-0.348701,0.751922,0.825690
921946,23628,18554,-1684,-11,8,6,-0.354696,0.756079,0.834349
937572,23674,18498,-1666,3,10,6,-0.366884,0.764076,0.851980
953199,23644,18576,-1720,15,19,8,-0.373057,0.767839,0.860779
968826,23618,18578,-1838,8,29,12,-0.385615,0.775248,0.878330
984452,23492,18640,-1836,-6,34,11,-0.391948,0.778798,0.887027
1000078,23416,18810,-1810,-11,21,8,-0.403928,0.785414,0.903876
1015704,23512,18814,-1842,-22,12,9,-0.415771,0.791857,0.920763
1031330,23556,18720,-1802,-52,24,8,-0.415771,0.791857,0.920763
1046956,23524,18626,-1766,-80,28,6,-0.432299,0.800831,0.944426
1062583,23534,18472,-1740,-75,27,1,-0.437440,0.803755,0.951737
1078209,23474,18432,-1744,-55,29,2,-0.447672,0.809238,0.966307
1093836,23444,18390,-1754,-39,27,7,-0.452962,0.811907,0.973715
1109462,23412,18442,-1774,-19,22,8,-0.463864,0.817147,0.988640
1125089,23380,18548,-1776,9,9,11,3.141505,0.000000,0.000000
1140716,23492,18650,-1734,13,-2,11,-0.481224,0.824693,1.012113
1156343,23572,18722,-1840,0,-4,16,-0.493008,0.829649,1.028085
1171970,23666,18678,-1774,-16,8,13,-0.498901,0.832100,1.035900
1187596,23632,18652,-1706,-24,20,8,-0.509973,0.836520,1.050867
1203221,23604,18640,-1714,-33,32,9,-0.515336,0.838646,1.058040
1218848,23482,18548,-1790,-44,35,8,-0.525322,0.842425,1.071678
1234475,23440,18502,-1804,-48,26,8,-0.530118,0.844285,1.078039
1250101,23538,18520,-1824,-39,18,10,-0.539875,0.847897,1.091325
1265728,23570,18554,-1732,-20,11,7,-0.549838,0.851536,1.104554
1281354,23566,18642,-1692,-17,14,6,-0.554942,0.853346,1.111357
1296980,23562,18608,-1688,-21,23,9,-0.564846,0.856496,1.124769
1312607,23502,18498,-1714,-24,30,9,-0.569793,0.858086,1.131143
1328233,23442,18508,-1752,-15,28,8,-0.579101,0.860987,1.143615
1343860,23476,18548,-1780,-4,19,10,-0.583971,0.862355,1.149893
1359487,23582,18680,-1826,-8,6,11,-0.593633,0.865181,1.162684
1375112,23708,18664,-1840,-32,21,6,-0.598478,0.866554,1.169017
1390738,23558,18650,-1808,-43,39,3,-0.607537,0.869130,1.181119
1406365,23392,18564,-1822,-45,38,3,-0.615747,0.871319,1.192075
1421992,23424,18468,-1710,-38,22,2,-0.619629,0.872234,1.197500
1437618,23564,18460,-1754,-25,7,7,-0.627968,0.874465,1.208506
1453244,23650,18512,-1722,-9,10,9,-0.632284,0.875585,1.214223
1468869,23594,18616,-1756,0,25,9,-0.641188,0.877849,1.225577
1484495,23516,18706,-1812,-4,31,9,-0.645453,0.878708,1.231161
1500121,23458,18704,-1774,-19,26,6,-0.653921,0.880611,1.241979
1515748,23492,18632,-1778,-34,22,3,-0.661314,0.882065,1.252196
1531374,23520,18630,-1808,-39,24,6,-0.665015,0.882822,1.257096
1547001,23490,18544,-1840,-43,27,8,-0.672329,0.884414,1.266780
1562628,23528,18582,-1736,-39,24,9,-0.675640,0.885082,1.271261
1578255,23568,18594,-1704,-30,17,5,-0.682879,0.886647,1.280642
1593881,23622,18564,-1674,-28,19,6,-0.686389,0.887301,1.285267
1609508,23550,18508,-1750,-28,26,6,-0.693351,0.888637,1.294391
1625134,23594,18482,-1772,-21,30,6,-0.696800,0.889319,1.298889
1640761,23426,18580,-1816,-10,27,11,-0.703698,0.890588,1.307692
1656388,23498,18714,-1778,-1,14,10,-0.710710,0.891704,1.316662
1672014,23646,18740,-1752,-8,5,8,-0.714385,0.892299,1.321310
1687641,23660,18720,-1746,-38,19,3,-0.721136,0.893386,1.330323
1703266,23584,18644,-1816,-54,40,4,-0.724068,0.893730,1.334284
1718892,23468,18474,-1802,-56,40,6,-0.729414,0.894607,1.341240
1734519,23394,18396,-1726,-47,29,3,-0.731910,0.895025,1.344702
1750144,23458,18394,-1694,-26,13,4,-0.737434,0.895817,1.351917
1765771,23612,18540,-1728,6,7,9,-0.743719,0.896713,1.359922
1781397,23662,18678,-1778,6,20,9,-0.746987,0.897178,1.364166
1797023,23566,18682,-1736,-13,31,8,-0.753215,0.897994,1.372023
1812650,23490,18630,-1786,-36,33,5,-0.755977,0.898334,1.375508
1828275,23506,18542,-1842,-42,23,5,-0.760785,0.898841,1.381987
1843900,23550,18548,-1856,-31,15,6,-0.763266,0.899184,1.385278
1859526,23546,18548,-1740,-22,14,5,-0.768599,0.899813,1.392232
1875153,23462,18640,-1622,-29,24,5,-0.771294,0.900101,1.395646
1890778,23476,18590,-1730,-50,28,12,-0.775892,0.900529,1.401815
1906403,23512,18526,-1738,-51,21,9,-0.780246,0.901170,1.407313
1922029,23524,18518,-1738,-33,21,7,-0.782150,0.901302,1.410069
1937656,23486,18540,-1692,-20,19,7,-0.786942,0.901892,1.416032
1953282,23510,18552,-1808,-29,14,10,-0.789217,0.902120,1.418995
1968908,23604,18618,-1782,-31,11,10,-0.794014,0.902683,1.424971
1984534,23644,18630,-1748,-19,9,7,-0.796231,0.902881,1.427852
2000159,23654,18680,-1766,-15,17,8,-0.801089,0.903434,1.433928
2015785,23588,18666,-1756,-13,36,9,-0.803098,0.903565,1.436663
2031412,23718,18598,-1872,26,55,2,-0.807410,0.903908,1.442052
2047038,23772,18764,-1942,129,87,-14,-0.812016,0.904059,1.447866
2062665,23532,18996,-1910,142,97,-15,-0.814718,0.903920,1.451462
2078292,23372,18912,-1674,19,89,-13,-0.819032,0.903334,1.457705
2093919,23276,18542,-1710,-86,70,-21,-0.819990,0.902941,1.459493
2109545,23416,18278,-1776,-91,52,-23,-0.821064,0.902463,1.461772
2125171,23492,18208,-1922,-24,39,-14,-0.821635,0.902274,1.462972
2140796,23486,18458,-1802,37,42,3,-0.825142,0.902423,1.467545
2156422,23416,18618,-1742,39,42,13,-0.829538,0.902691,1.473043
2172051,23412,18698,-1750,44,38,14,-0.831668,0.902865,1.475518
2187677,23464,18748,-1908,49,33,9,-0.835767,0.903051,1.480779
2203303,23546,18836,-1998,48,41,1,-0.838093,0.903219,1.483594
2218929,23530,18930,-2038,36,53,-1,-0.841846,0.903057,1.488849
2234555,23414,18854,-1914,-13,60,-9,-0.843438,0.902919,1.491200
2250182,23314,18678,-1890,-66,53,-8,-0.845412,0.902556,1.494273
2265808,23342,18492,-1868,-74,37,-7,-0.846026,0.902365,1.495552
2281434,23462,18436,-1866,-18,27,-4,-0.847725,0.902260,1.498152
2297060,23514,18572,-1974,21,30,1,-0.850658,0.902261,1.502064
2312686,23520,18752,-1994,35,36,8,-0.852496,0.902385,1.504321
2328312,23422,18854,-1932,17,40,11,-0.856315,0.902566,1.509066
2343938,23366,18774,-1878,-3,39,6,-0.857843,0.902603,1.510996
2359563,23352,18780,-1816,-2,48,0,-0.860204,0.902419,1.514402
2375189,23390,18664,-2018,11,54,-3,-0.861159,0.902302,1.515958
2390816,23398,18750,-2002,33,63,-9,-0.863552,0.902118,1.519314
2406442,23418,18866,-2038,11,62,-5,-0.865765,0.901721,1.522814
2422069,23350,18776,-1916,-28,54,-5,-0.866864,0.901546,1.524397
2437696,23414,18686,-1876,-43,50,-19,-0.868192,0.901189,1.526663
2453323,23462,18664,-1890,-5,65,-19,-0.868571,0.900945,1.527575
2468949,23386,18632,-1978,43,89,-16,-0.870108,0.900550,1.530107
2484575,23238,18614,-2118,30,102,-18,-0.870697,0.900250,1.531351
2500201,23028,18598,-1964,0,88,-6,-0.872023,0.899831,1.533478
2515827,23038,18554,-2028,12,44,-3,-0.872457,0.899613,1.534428
2531453,23440,18732,-2092,55,13,-15,-0.874697,0.899327,1.537776
2547080,23510,18858,-2016,63,38,-13,-0.877907,0.898973,1.542578
2562705,23460,18848,-2052,34,77,-9,-0.879467,0.898851,1.544688
2578331,23276,18860,-2122,9,94,-10,-0.880766,0.898454,1.547025
2593957,23130,18866,-2198,-10,80,-10,-0.881213,0.898264,1.547859
2609583,23144,18806,-2228,-27,48,-16,-0.881908,0.897700,1.549580
2625210,23200,18772,-2136,-42,54,-25,-0.882365,0.897327,1.550602
2640835,23188,18766,-1930,-31,47,-10,-0.882927,0.896644,1.552281
2656460,23258,18800,-2148,-8,46,-6,-0.884213,0.896482,1.554205
2672085,23236,18820,-2230,4,63,-14,-0.884829,0.896269,1.555414
2687711,23158,18902,-2122,-7,68,-12,-0.885879,0.895863,1.557454
2703338,23144,18892,-2094,-5,57,-10,-0.886261,0.895622,1.558308
2718964,23136,18848,-2224,-14,51,-14,-0.887265,0.895176,1.560172
2734590,23162,18692,-2192,-24,54,-7,-0.887802,0.894885,1.561186
2750216,23124,18580,-2182,3,47,-7,-0.888779,0.894625,1.562840
2765843,23080,18552,-2232,28,43,-11,-0.889679,0.894495,1.564180
2781469,23056,18590,-2046,78,39,-11,-0.891667,0.894228,1.567342
2797095,23092,18748,-2000,90,46,-17,-0.894225,2.247662,1.571047
2812722,23046,18936,-2032,91,43,-21,-0.895401,2.247902,1.573073
2828349,23054,18908,-2232,56,37,-26,-0.897307,2.248620,1.576600
2843976,23078,18846,-2350,45,37,-28,-0.898272,2.249074,1.578453
2859602,23114,18836,-2454,48,43,-24,-0.899738,2.249821,1.581461
2875228,22996,18822,-2254,61,37,-19,-0.900568,2.250191,1.583172
2890854,22898,18752,-2250,59,31,-18,-0.902575,2.250781,1.586641
2906480,22870,18780,-2298,103,21,-15,-0.903547,2.250999,1.588262
2922106,22960,18850,-2412,152,5,-16,-0.906131,2.251578,1.592695
2937732,23112,19026,-2516,181,3,-17,-0.910157,2.252056,1.598796
2953358,23166,19102,-2516,186,19,-12,-0.912379,2.252362,1.602275
2968984,23134,19216,-2434,167,31,-4,-0.916237,2.252898,1.608413
2984610,23070,19162,-2452,130,32,-4,-0.917923,2.253092,1.611093
3000236,23036,19048,-2480,98,28,-13,-0.920456,2.253546,1.615365
3015861,23076,19120,-2684,94,28,-22,-0.921361,2.253961,1.617176
3031488,23072,19162,-2826,123,34,-18,-0.923491,2.254633,1.621127
3047115,23030,19282,-2792,125,29,6,-0.926332,2.255111,1.625856
3062741,23154,19176,-2650,108,20,5,-0.927817,2.255284,1.628137
3078367,23210,19186,-2666,114,34,-16,-0.930288,2.255529,1.632218
3093993,23112,19208,-2734,101,52,-26,-0.931170,2.255892,1.634004
3109619,22958,19188,-2718,75,62,-16,-0.932345,2.256617,1.636884
3125245,22886,19162,-2910,77,61,-6,-0.932719,2.256912,1.637897
3140871,22860,19242,-3024,129,45,4,-0.934176,2.257327,1.640618
3156498,22914,19364,-2922,153,28,3,-0.935547,2.257534,1.642873
3172124,23046,19306,-2864,108,22,-15,-0.938209,2.258001,1.647669
3187750,23046,19328,-3014,72,37,-25,-0.939728,2.258719,1.651023
3203377,23036,19306,-3028,90,46,-9,-0.940173,2.259142,1.652267
3219003,23032,19394,-3060,139,45,9,-0.941965,2.259529,1.655550
3234630,22982,19462,-3030,144,40,9,-0.943183,2.259631,1.657480
3250257,23010,19466,-3052,90,47,-2,-0.945109,2.259956,1.661156
3265883,22976,19448,-3138,55,55,-7,-0.945747,2.260114,1.662412
3281508,22968,19372,-3098,54,52,-3,-0.946253,2.260691,1.664220
3297135,22958,19314,-3130,65,40,-3,-0.946905,2.261113,1.665952
3312761,22950,19392,-3280,75,38,-3,-0.947520,2.261332,1.667221
3328387,23010,19536,-3310,67,46,1,-0.948700,2.261758,1.669640
3344013,22954,19534,-3210,81,46,15,-0.949377,2.261888,1.670914
3359639,22978,19488,-3298,88,45,18,-0.950730,2.262087,1.673447
3375265,22950,19472,-3342,49,46,4,-0.951489,2.262089,1.674628
3390891,22966,19460,-3276,2,33,-6,-0.952158,2.262544,1.676390
3406518,23040,19404,-3280,-8,28,-5,-0.952051,2.262798,1.676661
3422145,23098,19516,-3376,45,43,19,-0.952373,2.263164,1.677794
3437772,23084,19550,-3490,24,39,33,-0.953529,2.263079,1.679528
3453397,23114,19542,-3378,-23,27,37,-0.954197,2.262908,1.680227
3469023,23068,19448,-3240,-25,33,32,-0.955113,2.262542,1.681078
3484650,22964,19550,-3086,9,56,16,-0.955182,2.262453,1.681084
3500275,22842,19706,-3288,8,73,11,-0.955152,2.262494,1.681334
3515900,22778,19702,-3218,-29,69,26,-0.954974,2.262599,1.681190
3531526,22752,19562,-3446,-60,44,29,-0.954510,2.262650,1.680603
3547152,22792,19344,-3516,-97,19,3,-0.954263,2.262758,1.680372
3562779,22948,19188,-3348,-82,16,-2,-0.953772,2.263120,1.679853
3578406,23018,19196,-3416,15,24,6,-0.953603,2.263461,1.679964
3594033,23108,19374,-3480,118,46,22,-0.954297,2.263427,1.680959
3609660,23022,19626,-3448,189,65,38,-0.956636,2.263147,1.684518
3625285,22880,19696,-3356,118,54,27,-0.957932,2.262960,1.686548
3640911,22756,19510,-3220,13,21,44,-0.959556,2.262945,1.689134
3656538,22714,19032,-3164,-52,50,17,-0.959897,2.262739,1.689575
3672165,22658,19136,-3066,21,51,-9,-0.959501,2.262762,1.689008
3687791,22746,19600,-3314,178,15,5,-0.960100,2.263280,1.690930
3703418,22918,19834,-3448,188,-18,14,-0.961543,2.263546,1.693612
3719051,23128,19782,-3696,49,-31,-3,-0.964256,2.264219,1.698972
3734676,23288,19672,-3738,-30,1,-14,-0.964976,2.264615,1.700494
3750302,23170,19668,-3768,5,42,-5,-0.965104,2.265301,1.701425
3765928,23012,19782,-3706,37,62,9,-0.965156,2.265537,1.701914
3781555,22934,19862,-3558,101,63,31,-0.965576,2.265706,1.703027
3797180,22890,20002,-3662,151,62,44,-0.966311,2.265596,1.704299
3812805,22876,19930,-3786,63,48,34,-0.967946,2.265429,1.707349
3828431,22978,19700,-3916,-38,32,4,-0.968654,2.265528,1.708725
3844058,23040,19520,-3792,-73,37,-9,-0.968457,2.265798,1.708700
3859684,23020,19382,-3612,-58,57,-8,-0.967509,2.266376,1.707861
3875311,22882,19634,-3554,43,68,5,-0.966781,2.266547,1.707225
3890937,22858,19956,-3822,149,57,22,-0.967130,2.266699,1.708222
3906563,22896,20132,-3988,143,45,30,-0.967888,2.266822,1.709983
3922190,22958,19938,-3754,7,32,19,-0.969430,2.267105,1.713064
3937817,23118,19632,-4030,-113,32,4,-0.969005,2.267483,1.712806
3953444,23048,19490,-4068,-89,66,0,-0.968281,2.267646,1.711900
3969071,22896,19644,-3498,63,106,5,-0.967197,2.267861,1.710617
3984697,22638,19968,-3346,175,85,36,-0.967191,2.267909,1.710874
4000323,22630,19974,-3508,111,25,54,-0.968358,2.267668,1.713431
4015950,22904,19864,-4048,-10,-16,31,-0.969270,2.267648,1.714769
4031576,23206,19692,-4150,-144,-4,-27,-0.969946,2.268080,1.716107
4047203,23234,19458,-3886,-191,49,-60,-0.968993,2.268627,1.715083
4062829,22862,19654,-3390,4,85,-3,-0.964996,2.270028,1.710660
4078455,22528,19926,-3376,144,41,63,-0.965206,2.269904,1.711247
4094081,22596,20052,-3958,176,-30,85,-0.966711,2.269487,1.713065
4109707,23024,19876,-4398,34,-46,33,-0.970601,2.269054,1.718657
4125334,23360,19612,-4460,-101,12,-41,-0.971496,2.269316,1.720214
4140960,23348,19432,-4060,-133,90,-76,-0.970098,2.270567,1.719405
4156587,22958,19412,-3874,-65,131,-54,-0.968247,2.271274,1.717501
4172213,22460,19506,-3514,33,125,-13,-0.965215,2.272140,1.714650
4187840,22270,19952,-3758,156,13,42,-0.965152,2.272316,1.715361
4203466,22630,19996,-4102,111,-34,22,-0.966332,2.272455,1.717704
4219093,22988,20056,-4154,68,-16,-24,-0.968744,2.273150,1.722260
4234718,23224,20164,-4172,27,19,-35,-0.968985,2.273871,1.723763
4250344,23194,19994,-4038,-49,52,-16,-0.968614,2.275069,1.724864
4265971,23028,19700,-3978,-106,90,-19,-0.967788,2.275376,1.724121
4281596,22726,19602,-3730,-71,112,-41,-0.965241,2.275936,1.720926
4297222,22462,19922,-3552,42,63,-19,-0.963580,2.276489,1.719435
4312848,22450,20410,-3474,180,-80,107,-0.963585,2.277012,1.720578
4328474,22890,20516,-4048,216,-156,163,-0.969355,2.275898,1.727876
4344100,23334,20078,-4534,34,-123,99,-0.973398,2.275053,1.732833
4359726,23708,19612,-4572,-153,-11,-25,-0.977268,2.274525,1.737318
4375353,23620,19424,-4390,-169,94,-78,-0.976556,2.274868,1.736326
4390979,23078,19444,-3920,-49,134,-35,-0.972814,2.275883,1.732010
4406605,22422,19786,-3592,130,78,61,-0.971843,2.275988,1.730841
4422231,22256,19728,-3730,166,-22,103,-0.973740,2.274873,1.733187
4437858,22756,19736,-4062,102,-61,21,-0.975931,2.274354,1.735844
4453484,23386,19816,-4426,25,-8,-62,-0.978079,2.275038,1.740054
4469111,23438,19772,-4482,4,55,-56,-0.977887,2.276593,1.741856
4484738,23206,19696,-4312,17,97,-39,-0.977222,2.277185,1.741628
4500365,22586,19736,-3958,66,109,-31,-0.975750,2.277859,1.740922
4515991,22268,20032,-3820,159,53,4,-0.975001,2.278267,1.740850
4531616,22352,20174,-4082,189,-26,40,-0.976146,2.278759,1.744138
4547242,22798,20000,-4152,122,-65,26,-0.979047,2.279199,1.749447
4562868,23266,20008,-4514,34,-35,-24,-0.980038,2.279531,1.751478
4578494,23448,20168,-4714,11,49,-50,-0.979875,2.280762,1.752797
4594120,23234,20402,-4698,74,88,-10,-0.979312,2.281354,1.752965
4609747,22762,20556,-4372,112,97,43,-0.979293,2.281556,1.753912
4625374,22332,20460,-4090,83,54,69,-0.979369,2.281402,1.754396
4641000,22312,20300,-4210,-15,-18,53,-0.980197,2.280993,1.755522
4656625,22802,19924,-4402,-103,-65,19,-0.980545,2.281165,1.755987
4672251,23276,19734,-4588,-103,-54,9,-0.980812,2.281649,1.756152
4687877,23398,19594,-4636,-48,3,15,-0.981232,2.281705,1.756439
4703503,23102,19944,-4458,66,76,15,-0.981879,2.281327,1.756768
4719128,22730,20354,-4420,115,78,21,-0.982151,2.281090,1.757675
4734753,22622,20480,-4412,76,31,30,-0.982325,2.281077,1.758376
4750378,22826,20278,-4574,-38,-8,15,-0.982860,2.281429,1.759928
4766003,23128,19918,-4580,-128,3,-5,-0.982696,2.281772,1.759898
4781629,23194,19660,-4704,-124,35,-17,-0.981323,2.282370,1.757987
4797255,23046,19730,-4596,-59,72,-15,-0.979840,2.282666,1.756139
4812882,22690,19928,-4542,-19,96,-8,-0.979172,2.282740,1.755329
4828508,22438,20288,-4332,24,45,11,-0.978020,2.283132,1.754327
4844135,22742,20362,-4336,30,-3,21,-0.977796,2.283406,1.754565
4859761,23166,20270,-4416,-34,-12,6,-0.978242,2.283982,1.755911
4875387,23264,19926,-4464,-111,18,-19,-0.978093,2.284251,1.756065
4891013,23098,19786,-4442,-117,63,-20,-0.976715,2.284694,1.753975
4906639,22690,19754,-4420,-53,84,-2,-0.975616,2.284891,1.752505
4922266,22446,20032,-4380,16,52,20,-0.974419,2.284930,1.750919
4937893,22624,20126,-4358,23,0,21,-0.974399,2.285001,1.751197
4953519,23084,20046,-4310,-38,-19,-5,-0.975098,2.285323,1.752682
4969146,23094,20066,-4382,-45,0,-6,-0.975106,2.285924,1.753169
4984772,22922,20066,-4450,-9,22,13,-0.975012,2.286131,1.753062
5000398,22750,20168,-4484,55,15,42,-0.975329,2.286023,1.753691
5016024,22750,20270,-4506,39,-12,48,-0.976292,2.285800,1.754848
5031651,22998,20204,-4542,-41,-22,13,-0.977675,2.285726,1.756945
5047278,23054,20076,-4492,-96,0,-10,-0.977332,2.286316,1.756688
5062904,23074,19950,-4470,-106,30,-20,-0.976793,2.286575,1.755913
5078530,22946,19930,-4592,-91,52,-21,-0.975994,2.286849,1.754982
5094156,22852,19994,-4498,-45,51,-12,-0.974279,2.287421,1.752918
5109782,22888,20096,-4494,-1,43,-3,-0.973422,2.287769,1.752079
5125408,22862,20140,-4296,-4,45,-2,-0.973230,2.288069,1.752233
5141035,22828,20018,-4162,-5,43,8,-0.972755,2.288219,1.752035
5156661,22716,19942,-4228,-31,33,15,-0.972541,2.288215,1.751708
5172287,22736,19972,-4368,-56,19,2,-0.972192,2.288298,1.751164
5187913,22912,20080,-4596,-45,13,-4,-0.971917,2.288497,1.750918
5203540,23028,20292,-4506,-47,19,3,-0.971653,2.288904,1.750960
5219167,23088,20212,-4418,-76,31,14,-0.971076,2.289139,1.750271
5234793,22890,19936,-4222,-96,39,7,-0.970957,2.289042,1.749682
5250420,22752,19752,-4084,-89,31,-3,-0.969531,2.289180,1.747580
5266051,22706,19732,-4366,-48,14,-1,-0.969165,2.289167,1.746842
5281677,22840,19852,-4518,4,-1,17,-0.969116,2.289326,1.746835
5297303,23014,20096,-4434,40,-4,33,-0.969775,2.289181,1.747632
5312928,23090,20098,-4336,21,11,21,-0.971407,2.288952,1.749866
5328555,22968,20136,-4236,-15,36,-1,-0.971849,2.288804,1.750338
5344182,22664,20044,-4272,-44,37,-3,-0.971370,2.289095,1.749961
5359809,22690,20022,-4262,-36,8,4,-0.970573,2.289465,1.749228
5375436,23050,19970,-4426,-15,-9,1,-0.970496,2.289599,1.749304
5391062,23196,20012,-4584,-15,12,-7,-0.970992,2.289892,1.750265
5406687,23072,20006,-4514,-31,47,-12,-0.971018,2.290056,1.750463
5422314,22888,20096,-4350,-26,63,-6,-0.970420,2.290249,1.749960
5437941,22662,20108,-4370,-11,51,4,-0.969914,2.290376,1.749385
5453567,22580,20028,-4348,-18,29,3,-0.969328,2.290665,1.749076
5469193,22792,19932,-4348,-30,12,-1,-0.969203,2.290847,1.749053
5484819,22888,19940,-4332,-15,23,-9,-0.968986,2.291094,1.749102
5500446,22816,19998,-4250,2,32,-4,-0.968872,2.291372,1.749273
5516071,22738,19958,-4306,-1,20,6,-0.968884,2.291468,1.749467
5531697,22786,20042,-4394,-14,-3,9,-0.969110,2.291567,1.749986
5547323,23022,20052,-4636,-14,-13,8,-0.969364,2.291692,1.750421
5562950,23172,20020,-4528,1,9,11,-0.970291,2.291741,1.751656
5578577,23036,20122,-4514,14,43,10,-0.970579,2.291750,1.752187
5594202,22780,20152,-4498,-10,56,6,-0.970899,2.291530,1.752723
5609829,22616,20130,-4360,-38,38,4,-0.970316,2.291679,1.752133
5625455,22630,20112,-4378,-43,10,9,-0.970116,2.291744,1.751812
5641081,22850,20118,-4436,-39,-10,19,-0.969992,2.292038,1.751879
5656708,23122,19984,-4516,-42,-6,21,-0.970236,2.292067,1.752119
5672334,23114,19964,-4532,-42,20,11,-0.970838,2.291848,1.752431
5687961,22920,19996,-4502,-43,54,3,-0.802860,0.512469,-0.439720
5703588,22654,19994,-4414,-51,59,-1,-0.970114,2.291706,1.751328
5719215,22556,20010,-4396,-49,16,9,-0.969685,2.291810,1.750769
5734842,22832,19958,-4354,-38,-9,13,-0.969168,2.291953,1.750092
5750468,23074,20014,-4496,-18,-2,1,-0.969681,2.292176,1.750771
5766094,23070,20176,-4474,-8,30,-1,-0.969819,2.292202,1.751080
5781720,22956,20144,-4384,-31,50,9,-0.969921,2.292233,1.751202
5797347,22744,20050,-4370,-71,50,1,-0.969603,2.292198,1.750755
5812973,22698,19936,-4292,-83,34,-16,-0.968196,2.292525,1.749046
5828600,22818,19878,-4166,-61,12,-25,-0.967536,2.292781,1.748343
5844226,22964,19904,-4322,-31,2,-14,-0.966802,2.293408,1.747729
5859852,22920,19916,-4396,-26,21,-2,-0.967072,2.293602,1.748166
5875478,22822,20024,-4388,-25,28,-6,-0.967072,2.293602,1.748166
5891104,22752,20120,-4308,-9,23,-5,-0.966777,2.293871,1.748199
5906730,22770,20134,-4396,-13,14,1,-0.966867,2.293945,1.748408
5922357,22826,20224,-4366,-34,2,0,-0.966905,2.294317,1.748890
5937984,22960,20228,-4448,-45,-5,7,-0.966828,2.294451,1.748965
5953610,22986,20098,-4478,-53,2,20,-0.967162,2.294527,1.749222
5969236,22976,19940,-4510,-63,22,25,-0.967407,2.294416,1.749180
5984862,22688,19844,-4346,-58,52,10,-0.967494,2.293946,1.748623
6000489,22536,19894,-4192,-29,43,4,-0.966855,2.293738,1.747450
6016115,22652,20016,-4122,-12,13,10,-0.966805,2.293786,1.747351
6031741,22778,20056,-4154,-22,-13,15,-0.966972,2.293837,1.747575
6047367,22930,19986,-4378,-44,-16,14,-0.967125,2.293931,1.747887
6062993,23012,19906,-4420,-50,2,10,-0.967893,2.293763,1.748421
6078619,22908,19850,-4406,-40,24,7,-0.968046,2.293718,1.748452
6094245,22820,19912,-4324,-14,30,10,-0.968096,2.293531,1.748270
6109872,22824,20038,-4260,-9,15,0,-0.968404,2.293497,1.748713
6125498,22906,20106,-4364,-30,8,-2,-0.968340,2.293588,1.748701
6141124,22888,20158,-4378,-25,12,14,-0.968430,2.293774,1.749000
6156751,22930,20092,-4394,-19,18,23,-0.968660,2.293735,1.749236
6172378,22870,19978,-4404,-36,27,8,-0.968913,2.293483,1.749376
6188005,22842,19834,-4288,-45,37,-2,-0.968941,2.293508,1.749292
6203631,22740,19874,-4206,-39,38,4,-0.968326,2.293464,1.748316
6219258,22634,19906,-4210,-28,26,11,-0.968123,2.293528,1.747995
6234885,22890,20052,-4288,-6,-1,5,-0.968081,2.293406,1.747885
6250512,23116,19996,-4306,-10,-4,2,-0.968710,2.293519,1.748864
6266138,23154,19948,-4406,-25,21,5,-0.969059,2.293579,1.749226
6281763,22946,19854,-4380,-16,53,5,-0.969263,2.293375,1.749266
6297390,22642,19926,-4240,1,59,2,-0.969222,2.293142,1.749067
6313017,22470,20060,-4274,16,28,8,-0.968733,2.293223,1.748868
6328643,22662,20196,-4336,24,-12,20,-0.968977,2.293280,1.749299
6344270,22998,20164,-4472,16,-27,23,-0.970232,2.293395,1.751167
6359896,23166,20076,-4520,-20,16,13,0.861730,2.017714,-2.923504
6375522,22984,19976,-4420,-43,60,0,-0.971573,2.293180,1.752760
6391148,22712,20012,-4264,-48,67,2,-0.970715,2.293105,1.751544
6406774,22556,20018,-4282,-36,32,18,-0.970270,2.292999,1.750702
6422400,22744,19964,-4416,-27,-2,27,-0.970075,2.292894,1.750371
6438025,22946,19986,-4366,-30,-5,10,-0.970383,2.292833,1.750624
6453651,23046,19936,-4402,-35,16,-3,-0.970844,2.292868,1.751188
6469277,22972,19956,-4428,-31,35,4,-0.970873,2.292893,1.751104
6484904,22828,19976,-4390,-11,34,19,-0.970845,2.292727,1.750907
6500529,22800,19986,-4428,-13,25,12,-0.971035,2.292455,1.750945
6516156,22826,20100,-4440,-12,21,0,-0.971125,2.292529,1.751154
6531783,22914,20100,-4360,-17,19,6,-0.971152,2.292694,1.751351
6547410,22970,20026,-4320,-35,19,7,-0.971061,2.292760,1.751422
6563037,22928,19996,-4358,-48,28,-1,-0.970985,2.292754,1.751216
6578664,22850,20022,-4352,-45,33,-1,-0.970692,2.292744,1.750686
6594290,22818,20028,-4480,-43,22,1,-0.970272,2.292916,1.750130
6609916,22886,20060,-4446,-52,16,4,-0.970055,2.293024,1.749896
6625542,22934,19960,-4364,-70,28,-7,-0.969760,2.293126,1.749456
6641168,22836,19914,-4308,-63,37,-15,-0.968967,2.293422,1.748445
6656795,22826,20094,-4234,-27,31,-2,-0.968608,2.293502,1.747902
6672422,22798,20158,-4286,-4,17,26,-0.968377,2.293541,1.747665
6688052,22892,20260,-4320,-5,3,33,-0.968581,2.293477,1.747986
6703679,22948,20302,-4424,-15,-11,42,-0.969774,2.293026,1.748987
6719304,23018,20126,-4344,-63,-10,32,-0.970362,2.292879,1.749577
6734931,23084,20042,-4330,-92,0,24,-0.970797,2.292580,1.749474
6750558,22870,19896,-4238,-80,7,52,-0.971229,2.292000,1.748810
6766184,22716,19896,-4132,-53,-5,69,-0.971558,2.291446,1.748406
6781811,22662,19914,-4090,-18,-39,90,-0.972947,2.290246,1.748689
6797438,22802,19748,-4326,-12,-74,100,-0.974566,2.289457,1.749783
6813064,23010,19618,-4446,-47,-75,59,-0.978037,2.288099,1.752591
6828691,23206,19634,-4514,-84,-35,10,-0.979158,2.287760,1.753488
6844318,23126,19684,-4392,-96,6,-5,-0.979810,2.287609,1.753538
6859943,23004,19750,-4310,-57,18,5,-0.979605,2.287643,1.753025
6875568,22850,19840,-4156,43,-6,35,-0.979668,2.287524,1.752849
6891194,22822,20062,-4236,82,-25,49,-0.981482,2.286921,1.755025
6906820,22842,20150,-4132,51,-36,44,-0.982851,2.286701,1.756736
6922446,22960,20244,-4270,22,-41,36,-0.984903,2.286415,1.759255
6938071,23126,20342,-4380,-5,-37,20,-0.985602,2.286447,1.760254
6953697,23368,20456,-4472,-28,-19,5,-0.986597,2.286749,1.761693
6969324,23420,20420,-4398,-74,13,-5,-0.986786,2.286874,1.761922
6984951,23282,20374,-4258,-107,50,7,-0.985531,2.287350,1.760510
7000578,23024,20112,-4222,-121,46,34,-0.983759,2.287094,1.757308
7016204,22972,19992,-4222,-135,22,25,-0.983057,2.286893,1.755841
7031830,23012,19862,-4226,-145,1,18,-0.981956,2.286545,1.753255
7047456,23170,19688,-4196,-139,-2,14,-0.981416,2.286511,1.752104
7063081,23110,19612,-4156,-101,3,13,-0.980818,2.286184,1.750377
7078707,23044,19630,-3978,-36,-13,22,-0.980747,2.286104,1.749895
7094334,23058,19690,-4036,-12,-40,26,-0.981623,2.285593,1.750275
7109960,23106,19662,-4132,-23,-55,20,-0.982409,2.285459,1.751013
7125586,23136,19818,-4144,13,-44,7,-0.984126,2.285337,1.752891
7141213,23240,20008,-4196,45,-28,7,-0.985629,2.285381,1.754908
7156840,23176,20042,-4208,24,-21,9,-0.986358,2.285512,1.756100
7172467,23172,20134,-4140,-5,-26,8,-0.987496,2.285663,1.757757
7188093,23238,20198,-4192,-10,-26,12,-0.987843,2.285773,1.758209
7203719,23198,20262,-4358,-16,-22,17,-0.988586,2.285947,1.759213
7219345,23274,20240,-4356,-45,-13,17,-0.988745,2.286048,1.759526
7234972,23236,20040,-4306,-101,14,6,-0.988840,2.286067,1.759357
7250597,22992,19802,-4158,-155,44,-13,-0.988237,2.286149,1.758380
7266223,22850,19644,-4090,-135,37,-11,-0.985690,2.286432,1.754726
7281849,22866,19600,-4156,-85,11,-10,-0.983873,2.286661,1.751899
7297476,23012,19664,-4140,-44,-14,-14,-0.983326,2.286795,1.751215
7313103,23294,19872,-4136,9,-19,-4,-0.983560,2.287154,1.751639
7328729,23408,20090,-4134,19,-11,7,-0.984135,2.287158,1.752328
7344355,23390,20144,-4208,-33,10,4,-0.984875,2.287123,1.753512
7359980,23322,20036,-4200,-88,38,-5,-0.984743,2.287161,1.753204
7375606,23158,20014,-4044,-116,54,-9,-0.983336,2.287155,1.750938
7391231,23080,20110,-3976,-94,37,-3,-0.980912,2.287456,1.747700
7406858,23156,20126,-3860,-71,8,9,-0.980275,2.287469,1.746722
7422484,23320,20130,-3944,-109,-20,18,-0.979588,2.287567,1.745456
7438109,23450,20024,-4040,-172,-16,19,-0.979415,2.287476,1.744768
7453734,23418,19872,-4220,-217,19,11,-0.978292,2.287132,1.742014
7469359,23210,19684,-3962,-222,62,3,-0.977069,2.287060,1.739798
7484985,22956,19550,-3720,-179,69,4,-0.974196,2.286579,1.734716
7500611,22900,19582,-3702,-119,40,7,-0.972931,2.286375,1.732491
7516237,23070,19624,-3730,-97,-7,-1,-0.971755,2.286172,1.730199
7531864,23130,19688,-3852,-112,-7,-12,-0.971215,2.286174,1.729069
7547491,23162,19732,-3648,-95,12,-5,-0.970973,2.286269,1.728559
7563118,23132,19828,-3730,-34,20,15,-0.970103,2.286265,1.727169
7578744,23190,19860,-3814,-10,14,26,-0.970310,2.286061,1.727213
7594369,23288,19940,-3838,-64,14,14,-0.971058,2.285548,1.727468
7609995,23280,20002,-3712,-128,23,-2,-0.970942,2.285396,1.726982
7625622,23222,19872,-3644,-154,25,4,-0.969413,2.285430,1.724527
7641248,23068,19634,-3626,-169,17,14,-0.967641,2.285236,1.721375
7656874,23058,19536,-3552,-157,18,4,-0.966905,2.285075,1.719926
7672500,23124,19616,-3520,-123,24,-7,-0.965478,2.284875,1.717133
7688126,23154,19814,-3650,-72,17,8,-0.964789,2.284956,1.716157
7703752,23240,19832,-3652,-81,1,13,-0.964581,2.284604,1.715284
7719378,23310,19786,-3462,-118,-3,4,-0.964561,2.284592,1.715011
7735005,23338,19772,-3430,-119,8,14,-0.964031,2.284378,1.713527
7750632,23342,19654,-3598,-105,14,24,-0.963696,2.284097,1.712534
7766259,23308,19590,-3606,-119,28,3,-0.963431,2.283524,1.711100
7781885,23220,19568,-3520,-150,43,-16,-0.962342,2.283158,1.708932
7797512,23080,19418,-3370,-177,41,-12,-0.961088,2.283217,1.707283
7813139,23160,19392,-3374,-125,29,1,-0.958843,2.283157,1.703681
7828766,23234,19650,-3594,-5,27,15,-0.958401,2.282943,1.702759
7844392,23360,19986,-3632,24,36,22,-0.959369,2.282490,1.703510
7860019,23414,20134,-3426,-42,52,18,-0.959728,2.282226,1.703945
7875646,23368,19990,-3234,-126,78,17,-0.959217,2.281790,1.702625
7891272,23106,19684,-3196,-219,84,6,-0.957943,2.281603,1.700594
7906898,23052,19320,-3288,-264,71,-11,-0.954349,2.281254,1.695119
7922524,23026,19116,-3292,-266,53,-18,-0.950209,2.281228,1.689010
7938150,23116,19046,-3304,-207,42,-6,-0.948649,2.281109,1.686486
7953776,23164,19058,-3136,-101,41,8,-0.946673,2.280689,1.683047
7969403,23194,19210,-3018,-29,37,16,-0.946535,2.280284,1.682364
7985030,23006,19206,-2762,-59,34,8,-0.947095,2.279535,1.681997
8000657,22952,19124,-2872,-95,27,-5,-0.946748,2.279335,1.681275
8016284,22898,19024,-3122,-90,-4,-14,-0.945892,2.279175,1.679816
8031910,22970,19082,-3136,-46,-32,-19,-0.945785,2.279321,1.679651
8047536,23136,19140,-3080,6,-52,-27,-0.946465,2.279346,1.680368
8063162,23300,19420,-3134,54,-52,-19,-0.948582,2.279751,1.683349
8078788,23458,19592,-3226,76,-29,-2,-0.949921,2.279805,1.685209
8094414,23440,19844,-3260,54,-2,4,-0.952644,2.279774,1.688739
8110039,23250,19870,-3356,-5,22,1,-0.953441,2.279709,1.689825
8125665,23022,19748,-3256,-58,37,3,-0.953802,2.279721,1.690363
8141292,22828,19476,-2970,-94,31,1,-0.953505,2.279682,1.689843
8156918,22816,19278,-3140,-90,11,-10,-0.952484,2.279704,1.688169
8172544,22918,19294,-3304,-74,-10,-27,-0.951621,2.279976,1.687279
8188171,23126,19286,-3246,-56,-34,-17,-0.951733,2.280198,1.687417
8203797,23172,19322,-3100,-55,-27,5,-0.952634,2.280354,1.688478
8219423,23140,19304,-2974,-59,4,20,-0.953154,2.280144,1.688784
8235051,23062,19518,-3068,-23,26,34,-0.953800,2.279423,1.688647
8250677,23042,19692,-3232,-6,18,35,-0.954241,2.278972,1.688638
8266303,23148,19670,-3358,-51,1,18,-0.955418,2.278419,1.689530
8281929,23294,19608,-3188,-112,19,14,-0.955370,2.278274,1.689083
8297556,23256,19546,-3008,-113,43,33,-0.955179,2.277997,1.688222
8313182,23168,19386,-3052,-84,55,41,-0.954464,2.277064,1.686133
8328808,23102,19366,-3008,-78,62,26,-0.954219,2.276539,1.685149
8344433,23056,19328,-3022,-125,58,9,-0.953172,2.275804,1.682971
8360059,23066,19188,-3100,-160,41,11,-0.952380,2.275699,1.681612
8375684,23158,19190,-2978,-129,17,24,-0.950702,2.275215,1.678696
8391310,23290,19170,-2902,-79,-1,23,-0.950679,2.274774,1.677965
8406936,23412,19196,-2860,-40,15,6,-0.951310,2.274133,1.677749
8422563,23340,19290,-2976,-48,34,1,-0.951539,2.273758,1.677521
8438190,23268,19418,-2982,-59,55,5,-0.951655,2.273459,1.677169
8453817,23074,19534,-3030,-58,66,16,-0.950978,2.273134,1.676001
8469443,23112,19568,-3068,-54,57,18,-0.950490,2.272986,1.675238
8485070,23088,19572,-3040,-81,42,3,-0.950020,2.272668,1.674207
8500697,23176,19468,-3022,-125,48,-1,-0.949418,2.272711,1.673536
8516323,23194,19306,-2908,-144,69,0,-0.947566,2.272687,1.670856
8531950,23044,19268,-2764,-173,70,-8,1.158838,-0.597089,0.580743
8547576,23056,19146,-2896,-196,66,-4,-0.943221,2.272585,1.664988
8563202,23110,19208,-2946,-144,68,14,-0.940620,2.272326,1.661058
8578828,23178,19274,-2938,-94,55,31,-0.939981,2.271999,1.659817
8594454,23238,19274,-3086,-93,67,33,-0.939448,2.271162,1.658118
8610081,23200,19158,-2812,-101,93,26,-0.939299,2.270737,1.657246
8625708,22914,19020,-2554,-126,96,11,-0.937808,2.269949,1.654486
8641334,22652,18888,-2386,-151,74,4,-0.936578,2.269761,1.652650
8656960,22708,18686,-2434,-105,14,12,-0.934246,2.269529,1.649319
8672587,22958,18728,-2768,-53,-18,17,-0.934012,2.269092,1.648286
8688214,23148,18950,-2924,-15,-21,26,-0.935070,2.268724,1.649070
8703840,23220,19076,-2784,5,-10,37,-0.937633,2.267927,1.651377
8719466,22966,19166,-2314,-2,-7,35,-0.939190,2.267443,1.652620
8735092,22838,19022,-2290,-26,-24,19,-0.940932,2.266793,1.654000
8750718,22920,18926,-2416,-29,-41,3,-0.941492,2.266716,1.654605
8766343,23220,18964,-2702,32,-39,2,-0.943091,2.266717,1.656381
8781970,23466,19226,-2858,75,-35,12,-0.944465,2.266623,1.657979
8797597,23460,19520,-2960,63,0,37,-0.948036,2.266151,1.662061
8813222,23334,19512,-2862,21,19,34,-0.951007,2.265383,1.664970
8828849,23230,19504,-2696,-22,27,10,-0.951813,2.265176,1.665780
8844474,23134,19398,-2598,-57,34,5,-0.951606,2.265189,1.665556
8860100,23162,19256,-2738,-104,22,9,-0.951192,2.265218,1.665107
8875727,23308,19166,-2926,-114,23,7,-0.950471,2.265096,1.663605
8891353,23282,19234,-2696,-90,28,17,-0.950063,2.264953,1.662886
8906980,23204,19140,-2642,-88,38,18,-0.949792,2.264522,1.661927
8922607,23130,19020,-2544,-97,40,10,-0.948802,2.264150,1.660156
8938233,23106,18996,-2648,-95,24,14,-0.948412,2.263967,1.659339
8953860,23136,18952,-2668,-83,14,19,-0.947922,2.263550,1.658155
8969486,23080,19014,-2594,-55,4,23,-0.948062,2.263282,1.657828
8985112,23106,18938,-2480,-46,-8,16,-0.948788,2.262880,1.658100
9000738,23148,18914,-2430,-52,-16,8,-0.949326,2.262624,1.658321
9016365,23258,18972,-2606,-35,-13,7,-0.950060,2.262465,1.658994
9031991,23238,19138,-2706,4,-8,19,-0.950728,2.262264,1.659517
9047617,23236,19284,-2574,-11,-3,25,-0.952408,2.261903,1.661090
9063243,23052,19232,-2464,-59,9,9,-0.953397,2.261612,1.661967
9078870,22986,19082,-2362,-109,2,-10,-0.953247,2.261618,1.661677
9094496,23136,18866,-2442,-111,-22,-14,-0.952002,2.262023,1.660381
9110123,23338,18848,-2638,-68,-40,-6,-0.951756,2.262197,1.660005
9125749,23466,19038,-2808,-32,-38,7,-0.953101,2.262161,1.661204
9141375,23442,19242,-2658,-30,-20,20,-0.953993,2.262001,1.662169
9157001,23324,19320,-2484,-51,3,15,-0.955320,2.261663,1.663229
9172627,23174,19180,-2398,-69,10,4,-0.955594,2.261450,1.663208
9188253,23288,19008,-2364,-57,1,-4,-0.954937,2.261569,1.662457
9203879,23458,18924,-2582,-59,-6,-3,-0.954820,2.261606,1.662199
9219505,23524,18964,-2776,-67,16,3,-0.955015,2.261481,1.662166
9235131,23372,19054,-2490,-50,30,13,-0.955211,2.261184,1.661866
9250757,23118,19088,-2262,-43,15,9,-0.955207,2.260991,1.661684
9266383,23034,19012,-2190,-63,-7,-4,-0.954915,2.260920,1.661180
9282010,23352,18886,-2434,-91,-26,-3,-0.954734,2.260965,1.660987
9297636,23536,18912,-2864,-55,-9,7,-0.955005,2.260943,1.660846
9313262,23456,19262,-2874,0,19,26,-0.956281,2.260443,1.661708
9328889,23168,19420,-2702,-8,35,39,-0.956977,2.260165,1.662311
9344515,23006,19358,-2286,-75,23,23,-0.957699,2.259673,1.662550
9360141,23042,19074,-2044,-144,-5,-3,-0.957055,2.259731,1.661787
9375768,23150,18646,-2020,-173,-23,-21,-0.955150,2.259974,1.659359
9391394,23346,18290,-2198,-139,-28,-25,-0.954265,2.260162,1.658122
9407020,23354,18250,-2314,-52,-31,-9,-0.953644,2.260189,1.657081
9422647,23342,18714,-2504,66,-42,14,-0.954383,2.259962,1.657631
9438273,23378,19128,-2506,91,-61,34,-0.957700,2.259338,1.660937
9453898,23446,19396,-2486,63,-70,43,-0.962183,2.258625,1.665604
9469524,23408,19466,-2422,5,-58,32,-0.964321,2.258317,1.667655
9485150,23426,19478,-2324,-47,-32,15,-0.966171,2.258167,1.669685
9500777,23420,19414,-2460,-108,-12,7,-0.966441,2.258228,1.669771
9516404,23366,19192,-2476,-168,-5,6,-0.965471,2.258369,1.668351
9532029,23450,18956,-2398,-187,-11,0,-0.964585,2.258341,1.667019
9547656,23470,18688,-2200,-166,-18,-5,-0.962790,2.258283,1.664355
9563282,23512,18552,-2118,-110,-12,-2,-0.961572,2.258024,1.662168
9578908,23484,18574,-2134,-65,-1,3,-0.961401,2.257852,1.661613
9594535,23350,18652,-2206,-17,9,7,-0.961576,2.257359,1.661140
9610162,23316,18896,-2214,26,2,9,-0.961869,2.257066,1.661200
9625787,23368,18998,-2288,38,-11,13,-0.963202,2.256841,1.662681
9641413,23420,19088,-2306,27,-15,17,-0.964288,2.256651,1.663645
9657038,23448,19100,-2348,5,-10,14,-0.965952,2.256361,1.665400
9672664,23472,19092,-2370,-25,-1,9,-0.966511,2.256283,1.665899
9688290,23482,19032,-2240,-63,10,7,-0.966988,2.256120,1.666121
9703917,23476,19070,-2198,-69,14,1,-0.966396,2.255909,1.665103
9719543,23466,19030,-2228,-78,22,1,-0.965953,2.255950,1.664564
9735169,23422,18850,-2238,-90,25,1,-0.964804,2.255855,1.662874
9750795,23468,18726,-2264,-85,17,1,-0.964211,2.255818,1.662121
9766421,23514,18692,-2288,-45,8,4,-0.963465,2.255549,1.660802
9782052,23496,18824,-2340,-4,8,8,-0.963734,2.255316,1.660874
9797678,23490,18912,-2304,9,13,13,-0.964817,2.254934,1.661661
9813305,23350,18990,-2172,-1,16,9,-0.965561,2.254619,1.662174
9828931,23400,18936,-2238,-10,13,5,-0.965692,2.254484,1.662297
9844558,23478,18922,-2236,-19,8,3,-0.965973,2.254445,1.662547
9860183,23506,18936,-2252,-24,17,3,-0.966057,2.254375,1.662473
9875810,23416,18936,-2232,-31,23,2,-0.966044,2.254182,1.662295
9891435,23426,18900,-2232,-36,19,5,-0.965819,2.254193,1.662068
9907062,23418,18930,-2364,-31,15,6,-0.965810,2.254018,1.661804
9922689,23478,18878,-2260,-19,13,4,-0.965746,2.253871,1.661515
9938315,23488,18914,-2254,-11,16,6,-0.966111,2.253762,1.661691
9953941,23444,18954,-2300,-14,20,10,-0.966321,2.253539,1.661827
9969568,23466,18938,-2252,-18,22,11,-0.966455,2.253422,1.661863
9985193,23512,18954,-2294,-3,24,9,-0.966697,2.253176,1.661814
10000819,23566,19076,-2224,4,24,9,-0.966855,2.252999,1.661839
10016445,23490,19036,-2250,-22,30,8,-0.967008,2.252804,1.661950
10032072,23442,18930,-2298,-51,38,4,-0.966861,2.252726,1.661736
10047699,23396,18852,-2330,-57,39,3,-0.965864,2.252610,1.660418
10063326,23408,18900,-2230,-36,18,2,-0.965294,2.252532,1.659565
10078952,23494,18848,-2222,-25,5,3,-0.965298,2.252551,1.659478
10094579,23540,18844,-2234,-10,14,5,-0.965404,2.252476,1.659612
10110206,23536,18892,-2294,4,27,9,-0.965765,2.252348,1.659875
10125831,23394,18990,-2256,4,30,11,-0.966079,2.251976,1.660011
10141457,23398,19086,-2316,-9,26,10,-0.966388,2.251895,1.660163
10157084,23448,19024,-2404,-30,15,11,-0.966546,2.251719,1.660188
10172711,23480,18990,-2270,-41,16,5,-0.966602,2.251691,1.660212
10188337,23498,18988,-2298,-42,22,5,-0.966231,2.251643,1.659684
10203963,23456,18848,-2192,-54,22,2,-0.965942,2.251526,1.659081
10219589,23492,18782,-2340,-58,23,-2,-0.965570,2.251479,1.658552
10235215,23514,18818,-2298,-41,21,6,-0.965052,2.251373,1.657722
10250840,23470,18874,-2354,-14,17,11,-0.964954,2.251249,1.657618
10266467,23374,18936,-2262,-3,18,13,-0.965682,2.251013,1.658058
10282093,23390,18940,-2178,-8,19,12,-0.965810,2.250859,1.658267
10297719,23408,18978,-2296,-10,14,10,-0.966120,2.250778,1.658420
10313346,23488,18986,-2340,-18,11,6,-0.966454,2.250692,1.658782
10328971,23542,18956,-2326,-29,21,8,-0.966820,2.250583,1.658959
10344597,23466,18988,-2230,-32,25,10,-0.966754,2.250436,1.658669
10360223,23464,19000,-2280,-46,26,8,-0.966605,2.250359,1.658454
10375850,23390,18908,-2142,-64,24,5,-0.966086,2.250253,1.657624
10391476,23464,18802,-2216,-58,15,4,-0.965711,2.250206,1.657095
10407103,23496,18754,-2240,-37,15,3,-0.965240,2.250053,1.656375
10422729,23472,18798,-2286,-15,22,5,-0.965243,2.250071,1.656289
10438355,23424,18888,-2326,1,25,12,-0.965686,2.249855,1.656564
10453981,23462,18972,-2298,15,17,19,-0.966406,2.249563,1.657264
10469608,23508,19106,-2146,-6,20,15,-0.966998,2.249424,1.657755
10485233,23462,19032,-2116,-36,20,11,-0.967077,2.249336,1.657768
10500859,23446,18986,-2288,-58,27,6,-0.966931,2.249277,1.657466
10516485,23456,18926,-2272,-73,29,6,-0.966046,2.249299,1.656371
10532110,23482,18822,-2248,-67,23,3,-0.965669,2.249251,1.655842
10547737,23558,18762,-2286,-37,21,1,-0.964914,2.249156,1.654783
10563364,23580,18806,-2268,-17,26,7,-0.965047,2.249040,1.654819
10578991,23454,18842,-2198,-7,34,7,-0.965057,2.248786,1.654628
10594618,23396,18882,-2204,6,25,9,-0.965163,2.248638,1.654627
10610244,23422,18948,-2318,9,17,11,-0.965393,2.248627,1.654854
10625870,23472,19010,-2298,7,19,16,-0.966186,2.248500,1.655759
10641496,23490,19004,-2254,-5,22,16,-0.966727,2.248408,1.656139
10657122,23498,18966,-2202,-21,27,12,-0.966938,2.248184,1.656274
10672749,23524,19004,-2192,-38,28,11,-0.966938,2.248184,1.656274
10688375,23472,19002,-2270,-52,27,8,-0.966491,2.247971,1.655540
10704001,23436,18916,-2414,-50,30,7,-0.965832,2.247982,1.654672
10719626,23446,18918,-2310,-46,30,7,-0.965602,2.247993,1.654444
10735251,23436,18830,-2298,-37,24,7,-0.965306,2.247876,1.653840
10750878,23480,18832,-2198,-18,18,9,-0.965075,2.247887,1.653612
10766504,23496,18830,-2182,-5,18,11,-0.965439,2.247759,1.653876
10782131,23468,18874,-2290,5,19,14,-0.965803,2.247632,1.654140
10797758,23486,18934,-2290,10,21,12,-0.966526,2.247339,1.654841
10813385,23454,19044,-2234,9,20,13,-0.967268,2.247259,1.655635
10829012,23512,19154,-2262,-10,22,12,-0.967577,2.247159,1.655875
10844638,23464,19064,-2266,-47,28,9,-0.967577,2.247159,1.655875
10860265,23496,19018,-2266,-65,24,6,-0.967350,2.247189,1.655561
10875891,23504,18856,-2336,-66,24,1,-0.966432,2.247252,1.654564
10891518,23452,18874,-2312,-62,28,3,-0.966286,2.247212,1.654175
10907143,23458,18828,-2264,-47,22,10,-0.965596,2.247264,1.653406
10922769,23454,18852,-2240,-20,13,10,-0.965446,2.247205,1.653103
10938396,23492,18940,-2196,-1,9,11,-0.965864,2.247049,1.653392
10954021,23540,18890,-2196,-11,11,11,-0.966380,2.246998,1.653872
10969647,23530,18930,-2274,-22,26,4,-0.966796,2.246824,1.654248
10985274,23452,18948,-2290,-12,28,10,-0.966796,2.246824,1.654248
11000900,23442,18988,-2296,-9,16,12,-0.966796,2.246824,1.654248
11016526,23492,19038,-2328,-27,6,10,-0.967446,2.246657,1.654765
11032152,23540,18988,-2282,-52,15,9,-0.967337,2.246787,1.654853
11047779,23526,18924,-2168,-58,25,7,-0.967093,2.246640,1.654273
11063406,23494,18884,-2238,-48,26,5,-0.966429,2.246650,1.653404
11079033,23444,18788,-2250,-40,21,5,-0.966279,2.246592,1.653101
11094659,23482,18792,-2288,-32,21,9,-0.966100,2.246574,1.652898
11110285,23444,18886,-2230,-17,19,13,-0.966182,2.246505,1.652823
11125911,23466,18974,-2234,-8,11,10,-0.966519,2.246418,1.653188
11141537,23548,18996,-2266,-13,8,8,-0.966805,2.246379,1.653441
11157163,23586,19010,-2282,-17,21,10,-0.967376,2.246300,1.653946
11172789,23552,19020,-2360,-22,29,9,-0.967376,2.246300,1.653946
11188416,23420,18930,-2282,-31,31,10,-0.967222,2.246204,1.653817
11204051,23428,18880,-2184,-37,25,8,-0.967224,2.246223,1.653730
11219677,23496,18832,-2228,-29,13,9,-0.966921,2.246087,1.653212
11235304,23552,18858,-2260,-20,13,8,-0.966974,2.246058,1.653237
11250931,23632,18922,-2324,-13,19,7,-0.967342,2.245949,1.653415
11266557,23548,18926,-2272,-18,26,10,-0.967546,2.245980,1.653743
11282183,23430,18946,-2304,-26,28,10,-0.967709,2.245821,1.653680
11297810,23444,18922,-2254,-29,22,9,-0.967556,2.245744,1.653464
11313437,23540,18880,-2178,-30,15,9,-0.967529,2.245804,1.653477
11329063,23490,18872,-2226,-30,17,6,-0.967663,2.245687,1.653514
11344690,23446,18944,-2300,-26,25,12,-0.967665,2.245706,1.653428
11360317,23494,19040,-2300,-20,20,11,-0.967798,2.245589,1.653465
11375943,23566,19002,-2252,-19,15,9,-0.967770,2.245631,1.653565
11391568,23584,18952,-2298,-31,22,8,-0.968004,2.245638,1.653706
11407195,23526,18892,-2270,-44,32,8,-0.967905,2.245532,1.653515
11422821,23440,18834,-2282,-39,28,7,-0.967703,2.245520,1.653101
11438446,23442,18862,-2308,-21,19,4,-0.967316,2.245454,1.652657
11454073,23468,18970,-2210,-5,7,8,-0.967521,2.245484,1.652985
11469698,23606,18918,-2308,-20,9,9,-0.968247,2.245483,1.653707
11485324,23578,18974,-2180,-29,25,9,-0.968587,2.245416,1.653986
11500950,23484,18938,-2230,-28,40,5,-0.968434,2.245338,1.653770
11516576,23424,18954,-2264,-25,36,10,-0.967943,2.245347,1.653189
11532203,23412,18924,-2276,-24,24,14,-0.967656,2.245386,1.652935
11547830,23484,18900,-2296,-25,14,10,-0.967790,2.245269,1.652973
11563456,23526,18962,-2312,-24,13,8,-0.968049,2.245290,1.653239
11579081,23562,18962,-2248,-28,20,9,-0.968336,2.245251,1.653492
11594707,23590,18940,-2314,-33,26,9,-0.968102,2.245261,1.653265
11610334,23526,18944,-2270,-27,23,11,-0.968104,2.245280,1.653178
11625960,23528,18924,-2266,-26,24,10,-0.968084,2.245085,1.652999
11641587,23482,18920,-2238,-34,23,12,-0.968166,2.245016,1.652925
11657214,23538,18972,-2282,-30,20,7,-0.968014,2.244956,1.652622
11672840,23566,18946,-2292,-26,19,7,-0.967985,2.244998,1.652722
11688465,23530,18936,-2334,-35,20,10,-0.967987,2.245016,1.652635
11704090,23484,18826,-2172,-40,22,8,-0.968040,2.244988,1.652661
11719716,23514,18930,-2206,-28,23,4,-0.967889,2.244947,1.652271
11735342,23502,18930,-2290,-20,21,7,-0.967572,2.245027,1.652118
11750968,23514,18896,-2388,-24,20,8,-0.967572,2.245027,1.652118
11766593,23524,18940,-2230,-18,20,8,-0.967831,2.245030,1.652472
11782218,23492,18916,-2138,-10,17,8,-0.968147,2.244949,1.652625
11797844,23556,18978,-2154,-17,18,5,-0.968353,2.244980,1.652953
11813471,23594,18996,-2306,-29,21,6,-0.968435,2.244910,1.652878
11829098,23568,18942,-2322,-36,23,3,-0.968120,2.245009,1.652638
11844724,23534,18940,-2348,-34,21,3,-0.968039,2.245097,1.652626
11860351,23534,18846,-2314,-34,26,2,-0.967805,2.245126,1.652311
11875977,23496,18868,-2246,-22,25,4,-0.967726,2.245232,1.652213
11891603,23466,18866,-2266,-13,23,7,-0.967726,2.245232,1.652213
11907229,23476,18962,-2198,-15,19,5,-0.967776,2.245167,1.652411
11922855,23584,18944,-2254,-22,16,7,-0.968013,2.245175,1.652553
11938481,23650,18992,-2326,-32,19,7,-0.967983,2.245217,1.652653
11954108,23566,18912,-2238,-31,28,4,-0.968036,2.245188,1.652678
11969734,23520,18956,-2180,-29,34,5,-0.967749,2.245245,1.652338
11985361,23468,18898,-2310,-46,26,2,-0.967227,2.245313,1.651770
12000988,23484,18856,-2300,-44,19,3,-0.966992,2.245324,1.651542
12016615,23586,18818,-2228,-23,21,2,-0.966964,2.245402,1.651469
12032242,23552,18868,-2212,-3,27,6,-0.966964,2.245402,1.651469
12047868,23494,18928,-2234,1,29,8,-0.967199,2.245373,1.651783
12063495,23476,18964,-2300,-4,24,8,-0.967514,2.245256,1.652110
12079121,23536,18988,-2296,-13,19,6,-0.967669,2.245333,1.652326
12094747,23550,18996,-2244,-27,19,4,-0.967905,2.245341,1.652467
12110373,23544,18934,-2336,-37,31,1,-0.967641,2.245393,1.652339
12125999,23512,18928,-2240,-37,37,3,-0.967273,2.245538,1.651987
12141626,23446,18930,-2284,-35,32,2,-0.966830,2.245500,1.651518
12157252,23440,18860,-2262,-31,24,5,-0.966461,2.245645,1.651166
12172879,23516,18876,-2256,-27,21,3,-0.966462,2.245664,1.651080
12188506,23514,18860,-2292,-18,23,4,-0.966432,2.245705,1.651180
12204132,23558,18934,-2204,-3,23,5,-0.966750,2.245625,1.651333
12219758,23536,18978,-2258,-4,23,5,-0.966904,2.245684,1.651635
12235384,23528,19024,-2274,-17,29,5,-0.967140,2.245673,1.651863
12251010,23544,18964,-2266,-24,31,4,-0.967058,2.245743,1.651938
12266636,23522,18936,-2288,-30,28,2,-0.966689,2.245870,1.651672
12282263,23580,18964,-2354,-33,27,3,-0.966770,2.245800,1.651598
12297890,23496,18928,-2280,-33,28,6,-0.966454,2.245899,1.651358
12313517,23506,18916,-2264,-32,29,3,-0.966454,2.245899,1.651358
12329144,23486,18900,-2226,-27,24,1,-0.966136,2.245998,1.651118
12344771,23432,18906,-2212,-24,22,4,-0.966136,2.245998,1.651118
12360397,23482,18916,-2274,-28,24,7,-0.966137,2.246016,1.651031
12376023,23508,18894,-2258,-17,24,8,-0.966056,2.246104,1.651019
12391649,23488,19002,-2286,-3,30,8,-0.966189,2.245969,1.651143
12407275,23436,19026,-2230,-17,31,10,-0.966372,2.245987,1.651346
12422902,23494,18958,-2226,-42,28,8,-0.966372,2.245987,1.651346
12438528,23494,18918,-2208,-51,27,4,-0.965901,2.246027,1.650803
12454153,23496,18880,-2302,-47,29,4,-0.965457,2.246006,1.650248
12469778,23440,18874,-2260,-34,28,4,-0.964902,2.246116,1.649781
12485405,23514,18876,-2334,-25,21,5,-0.964984,2.246046,1.649706
12501032,23532,18906,-2246,-9,16,7,-0.965191,2.246095,1.649947
12516659,23600,18958,-2298,-9,22,8,-0.965717,2.246045,1.650427
12532285,23550,18976,-2348,-11,28,10,-0.965850,2.245910,1.650552
12547911,23458,19062,-2308,-20,30,10,-0.966087,2.245899,1.650779
12563538,23442,19002,-2156,-32,29,4,-0.966087,2.245899,1.650779
12579164,23470,18908,-2236,-40,24,1,-0.965717,2.246045,1.650427
12594789,23548,18890,-2372,-41,16,1,-0.965399,2.246144,1.650188
12610415,23578,18828,-2330,-32,19,1,-0.965288,2.246291,1.650189
12626041,23530,18896,-2280,-12,32,6,-0.965659,2.246182,1.650367
12641667,23390,18924,-2244,-17,34,8,-0.965658,2.246164,1.650454
12657293,23414,18914,-2294,-18,26,6,-0.965451,2.246115,1.650213
12672919,23470,18944,-2242,-15,15,7,-0.965451,2.246115,1.650213
12688545,23554,19030,-2296,-21,13,8,-0.965866,2.246195,1.650781
12704171,23504,18988,-2340,-31,24,3,-0.966103,2.246202,1.650922
12719797,23470,18950,-2214,-41,32,2,-0.965785,2.246301,1.650682
12735424,23414,18882,-2206,-42,29,3,-0.965548,2.246312,1.650455
12751052,23478,18912,-2276,-31,19,4,-0.965021,2.246379,1.649887
12766678,23470,18860,-2288,-19,14,6,-0.964991,2.246439,1.649900
12782304,23518,18882,-2322,-13,15,9,-0.965281,2.246400,1.650153
12797931,23512,18928,-2380,-4,19,12,-0.965860,2.246304,1.650746
12813558,23518,18994,-2396,6,17,15,-0.966231,2.246176,1.651011
12829184,23482,19066,-2324,4,16,15,-0.967283,2.246060,1.652059
12844811,23410,19072,-2260,-24,17,10,-0.967572,2.246003,1.652399
12860437,23430,18984,-2232,-52,15,4,-0.967491,2.246109,1.652300
12876063,23508,18942,-2322,-54,7,2,1.172446,-0.597471,0.546520
12891689,23588,18962,-2324,-46,13,7,-0.967117,2.246363,1.651912
12907316,23622,18978,-2276,-49,20,6,-0.966902,2.246405,1.651722
12922941,23486,18986,-2324,-43,27,3,-0.966746,2.246345,1.651420
12938567,23428,18886,-2300,-41,30,4,-0.966427,2.246461,1.651093
12954193,23420,18850,-2228,-49,21,5,-0.966188,2.246472,1.650865
12969819,23500,18856,-2288,-39,16,5,-0.965711,2.246510,1.650323
12985445,23502,18912,-2284,-22,19,10,-0.965763,2.246482,1.650348
13001071,23464,18948,-2232,-27,20,10,-0.966187,2.246326,1.650639
13016698,23442,18894,-2214,-40,21,8,-0.966321,2.246228,1.650590
13032324,23472,18956,-2260,-35,20,6,-0.966321,2.246245,1.650503
13047951,23526,18946,-2268,-16,22,7,-0.966051,2.246297,1.650375
13063578,23510,18996,-2304,-9,26,7,-0.966530,2.246295,1.650744
13079204,23528,18918,-2318,-16,35,7,-0.966612,2.246207,1.650756
13094830,23488,18916,-2374,-13,38,9,-0.966373,2.246181,1.650702
13110456,23502,18986,-2260,-19,27,7,-0.966560,2.246217,1.650818
13126082,23558,18978,-2252,-29,24,6,-0.966402,2.246140,1.650602
13141708,23586,18886,-2256,-19,38,5,-0.966321,2.246228,1.650590
13157335,23518,18960,-2276,-13,51,6,-0.966193,2.246090,1.650362
13172961,23420,18886,-2336,-15,49,12,-0.966014,2.245999,1.650021
13188588,23346,18954,-2228,-15,35,5,-0.965754,2.245979,1.649755
13204215,23374,18916,-2172,-18,29,0,-0.965672,2.246049,1.649830
13219841,23448,18922,-2186,-27,36,6,-0.965300,2.246158,1.649651
13235466,23486,18814,-2260,-25,41,9,-0.965091,2.246127,1.649324
13251092,23466,18826,-2260,-8,41,10,-0.964964,2.246007,1.649008
13266718,23418,18930,-2220,0,35,15,-0.965076,2.245842,1.649094
13282343,23404,18932,-2148,-18,26,15,-0.965397,2.245744,1.649334
13297969,23376,18900,-2230,-43,24,12,-0.965240,2.245666,1.649118
13313595,23450,18856,-2334,-44,23,9,-0.965240,2.245684,1.649032
13329221,23438,18772,-2400,-15,19,14,-0.965134,2.245595,1.648754
13344847,23486,18760,-2370,26,15,20,-0.965425,2.245538,1.649094
13360473,23540,18972,-2264,48,12,22,-0.967308,2.245062,1.650774
13376099,23594,19084,-2328,50,11,20,-0.968124,2.244920,1.651769
13391725,23666,19214,-2372,21,28,14,-0.969938,2.244709,1.653702
13407351,23556,19198,-2298,-17,47,7,-0.970356,2.244698,1.654219
13422977,23408,18992,-2278,-62,53,2,-0.969933,2.244853,1.653928
13438602,23310,18798,-2364,-87,46,-5,-0.968306,2.245083,1.652197
13454229,23398,18738,-2394,-48,26,-5,-0.967492,2.245207,1.651289
13469854,23492,18778,-2376,15,15,5,-0.967381,2.245355,1.651290
13485480,23510,18842,-2282,37,17,12,-0.967826,2.245358,1.651932
13501105,23532,18982,-2328,36,26,13,-0.969060,2.245241,1.653271
13516731,23506,19196,-2390,44,35,10,-0.970288,2.245107,1.654697
13532357,23566,19270,-2418,36,41,7,-0.970622,2.245185,1.655201
13547983,23500,19206,-2360,-8,51,4,-0.970734,2.245413,1.655916
13563608,23446,19078,-2408,-60,58,0,-0.970395,2.245497,1.655550
13579234,23414,18958,-2316,-87,54,-5,-0.968643,2.245826,1.653870
13594860,23452,18904,-2326,-78,36,-4,-0.967597,2.245943,1.652822
13610485,23610,18968,-2304,-53,23,-1,-0.966470,2.246184,1.651588
13626111,23680,19126,-2358,-57,51,0,-0.966234,2.246213,1.651273
13641738,23360,19124,-2386,-105,97,-7,-0.964687,2.246339,1.649645
13657365,23222,19066,-2332,-104,90,-1,-0.961534,2.246622,1.646364
13672991,23290,18984,-2378,-83,60,0,-0.959980,2.246751,1.644738
13688618,23508,18926,-2424,-60,53,-9,-0.958338,2.246987,1.643013
13704245,23614,18924,-2494,-45,80,-11,-0.957673,2.247173,1.642410
13719870,23460,18854,-2418,-55,106,-5,-0.956019,2.247327,1.640909
13735495,23282,18842,-2294,-57,106,-1,-0.955052,2.247309,1.639650
13751122,23100,18732,-2190,-28,85,3,-0.953063,2.247319,1.637505
13766749,23220,18722,-2182,15,58,6,-0.952520,2.247343,1.636987
13782375,23328,18762,-2332,38,53,2,-0.952623,2.247384,1.637314
13798000,23350,18756,-2426,23,62,-1,-0.953336,2.247285,1.638131
13813627,23300,18804,-2356,37,60,4,-0.953450,2.247355,1.638496
13829253,23254,18836,-2288,73,50,1,-0.954081,2.247306,1.639476
13844879,23282,18920,-2272,78,38,-8,-0.954822,2.247429,1.640512
13860506,23348,18930,-2328,75,41,-12,-0.955979,2.247755,1.642433
13876132,23316,18912,-2330,77,49,-10,-0.956628,2.247965,1.643458
13891759,23238,18870,-2328,80,47,-13,-0.957715,2.248320,1.645354
13907385,23270,18926,-2476,97,44,-21,-0.958627,2.248832,1.647314
13923011,23238,19066,-2506,102,35,-21,-0.959330,2.249188,1.648630
13938638,23292,19078,-2506,107,29,-9,-0.960803,2.249793,1.651357
13954264,23306,19122,-2700,125,33,-3,-0.961802,2.250068,1.652823
13969889,23312,19236,-2738,127,36,-6,-0.963962,2.250397,1.656159
13985515,23338,19248,-2680,115,42,-4,-0.964936,2.250635,1.657797
14001141,23240,19198,-2650,97,49,-8,-0.966726,2.251070,1.660683
14016767,23152,19140,-2592,73,52,-9,-0.967316,2.251261,1.661791
14032392,23190,19056,-2692,59,41,-15,-0.967660,2.251797,1.663080
14048019,23310,19122,-2800,85,39,-13,-0.968254,2.252355,1.664632
14063644,23298,19304,-2946,127,38,-3,-0.968254,2.252355,1.664632
14079271,23338,19448,-3068,125,32,7,-0.971012,2.252950,1.669282
14094897,23304,19460,-3008,96,39,11,-0.972369,2.253008,1.671018
14110523,23274,19284,-2848,57,52,8,-0.973788,2.253326,1.673296
14126149,23152,19154,-2788,36,55,4,-0.974067,2.253380,1.673887
14141775,23114,19110,-2868,67,51,8,-0.974156,2.253496,1.674492
14157401,23096,19276,-2954,138,39,15,1.569597,-2.995269,-3.019187
14173027,23110,19450,-3042,162,33,15,-0.976861,2.253576,1.678489
14188653,23248,19560,-3080,128,34,5,-0.979368,2.253914,1.682384
14204280,23340,19656,-3130,76,51,-3,-0.980010,2.254160,1.683788
14219906,23336,19574,-3082,58,70,1,-0.980470,2.254697,1.685212
14235531,23224,19598,-3012,43,76,2,-0.980317,2.254903,1.685515
14251158,23170,19618,-3086,20,81,-4,-0.979619,2.255294,1.685571
14266785,23124,19530,-3172,1,87,-5,-0.979172,2.255624,1.685343
14282412,23046,19466,-3122,-21,75,7,-0.977597,2.256109,1.684385
14298038,23114,19280,-3196,-26,61,10,-0.976541,2.256413,1.683468
14313665,23128,19272,-3196,-9,58,-2,-0.976210,2.256478,1.683196
14329291,23098,19288,-3126,7,57,-7,-0.975740,2.256851,1.683067
14344918,23148,19362,-3204,28,51,3,-0.975444,2.257042,1.683168
14360545,23138,19440,-3142,45,49,12,-0.975630,2.257312,1.683914
14376172,23126,19448,-3296,45,50,17,-0.976099,2.257371,1.684644
14391797,23092,19486,-3234,42,50,18,-0.976609,2.257493,1.685737
14407422,23122,19468,-3226,47,43,14,-0.977160,2.257483,1.686393
14423051,23076,19414,-3146,33,44,6,-0.977843,2.257635,1.687809
14438677,23050,19390,-3188,25,50,4,-0.978016,2.257903,1.688554
14454304,23104,19478,-3314,50,52,14,-0.977932,2.258101,1.688796
14469931,23116,19662,-3376,80,48,23,-0.978701,2.258121,1.690128
14485557,23164,19756,-3458,68,43,25,-0.979484,2.258243,1.691297
14501184,23190,19666,-3336,8,40,14,-0.980396,2.258336,1.693047
14516810,23158,19588,-3304,-39,46,4,-0.980459,2.258438,1.693238
14532436,23116,19422,-3254,-43,56,4,-0.979614,2.258875,1.692484
14548061,23058,19512,-3226,17,62,19,-0.978756,2.259016,1.691716
14563688,23040,19682,-3376,48,63,26,-0.978685,2.258958,1.691770
14579313,22944,19678,-3364,14,48,25,-0.978973,2.259026,1.692626
14594940,23072,19546,-3450,-53,31,20,-0.979036,2.259129,1.692818
14610566,23162,19398,-3374,-70,34,6,-0.978580,2.259263,1.692267
14626192,23186,19476,-3246,-16,45,-2,-0.978236,2.259454,1.692015
14641818,23134,19526,-3226,19,55,7,-0.977898,2.259711,1.691923
14657444,23230,19652,-3308,41,73,21,-0.977596,2.259900,1.692025
14673071,23130,19666,-3350,48,89,19,-0.977801,2.259805,1.692477
14688696,23134,19732,-3420,63,92,13,-0.977660,2.259755,1.692745
14704322,23104,19740,-3480,29,93,7,-0.977512,2.259914,1.692956
14719948,22990,19512,-3342,-39,86,-3,-0.976638,2.260292,1.692615
14735574,22978,19356,-3198,-75,86,-12,-0.975732,2.260545,1.691751
14751200,22896,19292,-3222,-60,73,-16,-0.973262,2.261118,1.689326
14766826,22900,19294,-3256,-39,37,-6,-0.972332,2.261414,1.688560
14782451,22984,19244,-3376,9,8,3,-0.971843,2.261913,1.688457
14798078,23130,19202,-3464,54,2,-8,-0.973330,2.262252,1.690747
14813705,23164,19316,-3386,70,13,-19,-0.974323,2.262437,1.692267
14829332,23084,19412,-3474,86,25,-12,-0.975492,2.263096,1.694828
14844957,22980,19624,-3570,115,32,4,-0.976135,2.263326,1.696163
14860582,22934,19800,-3644,137,25,16,-0.978224,2.263713,1.699554
14876209,22928,19832,-3696,115,15,5,-0.979273,2.263849,1.701532
14891834,22928,19758,-3530,51,4,-15,-0.981022,2.264639,1.704962
14907460,23056,19702,-3574,15,5,-21,-0.981257,2.265172,1.705943
14923087,23142,19770,-3646,57,15,-6,-0.981365,2.266222,1.707357
14938714,23226,19848,-3708,70,22,9,-0.982456,2.266762,1.709534
14954341,23258,19946,-3872,34,43,2,-0.983034,2.266848,1.710579
14969967,23094,19838,-3778,-43,59,-23,-0.983055,2.267457,1.711492
14985592,22956,19602,-3664,-97,55,-23,-0.982282,2.267846,1.710853
15001217,22892,19494,-3588,-83,48,-10,-0.979979,2.268677,1.708674
15016843,22856,19524,-3798,0,52,-5,-0.979134,2.268944,1.707931
15032469,22830,19576,-3814,26,52,-2,-0.979010,2.269330,1.708351
15048095,22834,19546,-3668,-12,38,-11,-0.979112,2.269533,1.708733
15063721,22914,19622,-3600,-22,40,-18,-0.978290,2.270473,1.708912
15079347,22870,19708,-3642,-2,37,-11,-0.977854,2.270860,1.708903
15094972,22966,19910,-3754,28,37,12,-0.977746,2.271120,1.709152
15110597,23004,20004,-3776,55,43,34,-0.978371,2.271307,1.710386
15126223,22994,20138,-4014,40,49,32,-0.978936,2.271203,1.711053
15141849,22950,20070,-4052,-62,54,9,-0.979438,2.271313,1.712076
15157475,22978,19842,-3958,-165,63,-6,-0.978689,2.271512,1.711263
15173101,22932,19624,-3734,-180,64,19,-0.975905,2.272044,1.707893
15188728,22996,19578,-3620,-120,71,27,-0.973577,2.271892,1.704257
15204354,23002,19688,-3824,-69,89,6,-0.972857,2.271645,1.703082
15219980,22934,19778,-3752,-102,100,-14,-0.970846,2.271805,1.700779
15235606,22802,19806,-3340,-135,94,-8,-0.969655,2.272015,1.699407
15251231,22806,19744,-3064,-118,75,29,-0.966295,2.272421,1.695622
15266857,22588,19488,-2810,-105,53,55,-0.965286,2.272308,1.693925
15282483,22568,19470,-2898,6,-8,71,-0.964498,2.271374,1.691902
15298109,22796,19608,-3586,105,-81,97,-0.968530,2.270180,1.695558
15313736,23186,19212,-4060,56,-67,75,-0.971642,2.269538,1.698849
15329362,23336,19272,-3764,146,0,34,-0.976754,2.268493,1.704074
15344988,23276,19686,-3628,213,40,24,-0.978927,2.268090,1.706762
15360615,23104,20036,-3726,149,46,30,-0.982188,2.267709,1.711414
15376241,23048,20086,-3838,13,30,21,-0.983062,2.267794,1.712889
15391867,23070,19914,-3872,-88,15,4,-0.983325,2.268093,1.713595
15407494,23164,19878,-3796,-89,18,-5,-0.982675,2.268477,1.713090
15423120,23074,19778,-3722,-73,35,1,-0.981807,2.269007,1.712175
15438746,23022,19598,-3470,-114,53,-11,-0.980285,2.269448,1.710636
15454372,22962,19458,-3590,-120,34,-12,-0.979175,2.269694,1.709286
15469999,23006,19296,-3746,-106,20,-6,-0.977283,2.270247,1.707221
15485626,23070,19364,-3782,-19,25,-6,-0.976939,2.270316,1.706601
15501252,23042,19528,-3704,27,45,-13,-0.977259,2.270568,1.707412
15516877,22970,19684,-3834,-11,61,-23,-0.977203,2.270929,1.707853
15532503,22828,19696,-3676,-61,68,-32,-0.975976,2.271621,1.707288
15548129,22812,19734,-3480,-78,56,-34,-0.973698,2.272748,1.705490
15563756,22968,19858,-3584,4,25,-11,-0.972850,2.273229,1.704843
15579382,23080,19924,-3732,-12,26,0,-0.972545,2.273880,1.705422
15595008,23140,19922,-3824,-67,56,-20,-0.972455,2.274161,1.705587
15610634,23016,19786,-3716,-126,88,-37,-0.970640,2.274833,1.703993
15626260,22742,19690,-3368,-124,104,-31,-0.968794,2.275299,1.702112
15641886,22674,19692,-3318,-56,60,1,-0.965493,2.276015,1.698624
15657513,22708,19592,-3344,-41,5,21,-0.964971,2.276157,1.698145
15673140,22932,19392,-3556,-44,-25,25,-0.965633,2.276049,1.698582
15688767,23278,19380,-3824,-26,25,-25,-0.966792,2.275907,1.699597
15704393,23128,19684,-3706,38,78,-45,-0.966754,2.276141,1.699867
15720020,22864,20014,-3678,61,89,-5,-0.966063,2.276880,1.700328
15735646,22724,19812,-3518,-31,63,18,-0.966110,2.277046,1.700687
15751273,22724,19648,-3516,-118,46,-17,-0.965146,2.277175,1.699737
15766900,22774,19520,-3590,-133,51,-43,-0.963926,2.277493,1.698470
15782527,22820,19352,-3604,-127,55,-39,-0.961279,2.278569,1.695903
15798153,22846,19362,-3616,-93,66,-34,-0.958947,2.279219,1.693580
15813779,22808,19476,-3494,-13,85,-33,-0.958025,2.279516,1.692831
15829405,22616,19682,-3340,51,68,-7,-0.957100,2.280006,1.692425
15845031,22584,19670,-3550,33,29,11,-0.957274,2.280099,1.692908
15860657,22630,19472,-3522,-39,17,-13,-0.957925,2.280346,1.694145
15876283,22666,19664,-3602,-20,25,-31,-0.957827,2.280689,1.694317
15891908,22732,19830,-3778,26,26,-9,-0.957662,2.281436,1.695026
15907535,22842,19830,-3740,6,34,6,-0.958216,2.281650,1.695879
15923162,22846,19746,-3556,-20,46,-3,-0.958514,2.281855,1.696857
15938788,22816,19834,-3664,-43,49,-9,-0.958377,2.281970,1.696826
15954414,22792,19764,-3766,-130,55,-13,-0.957473,2.282288,1.695993
15970041,22704,19506,-3558,-167,75,-23,-0.955189,2.282793,1.693328
15985667,22474,19662,-3338,-41,65,5,-0.953869,2.283017,1.691682
16001294,22540,19896,-3420,61,21,54,-0.953560,2.282807,1.691326
16016920,22676,19786,-3468,16,-15,55,-0.954857,2.282461,1.692602
16032546,22884,19554,-3602,-95,-11,13,-0.956860,2.281957,1.694413
16048173,23028,19328,-3712,-175,22,-23,-0.956872,2.281914,1.694158
16063800,22948,19216,-3724,-176,51,-31,-0.954893,2.282287,1.691579
16079425,22768,19384,-3348,-3,85,-11,-0.952873,2.282434,1.688964
16095051,22608,20016,-3532,156,68,28,-0.953005,2.282362,1.689250
16110676,22630,20124,-3514,92,39,38,-0.955223,2.282034,1.692414
16126302,22778,19886,-3648,-95,27,8,-0.955987,2.281958,1.693391
16141928,22894,19510,-3632,-209,42,-28,-0.954627,2.282351,1.691845
16157554,22854,19220,-3624,-228,69,-36,-0.953245,2.282558,1.689926
16173180,22784,18954,-3486,-192,95,-35,-0.949529,2.282975,1.685331
16188806,22664,18966,-3384,-108,105,-38,-0.947677,2.283091,1.683026
16204432,22490,19320,-3254,-2,79,-23,-0.945238,2.283447,1.680402
16220058,22386,19478,-3162,45,42,-8,-0.944850,2.283649,1.680390
16235684,22506,19564,-3208,57,7,1,-0.945143,2.283859,1.681176
16251309,22564,19596,-3254,44,-8,-3,-0.946906,2.284020,1.683648
16266935,22612,19714,-3344,50,-15,3,-0.947907,2.284219,1.685053
16282560,22656,19860,-3494,55,-21,13,-0.949873,2.284424,1.687945
16298187,22694,19858,-3692,43,-22,23,-0.951253,2.284447,1.689704
16313813,22728,19892,-3640,21,-11,24,-0.953948,2.284396,1.693030
16329440,22710,19836,-3646,-39,6,23,-0.955523,2.284281,1.694837
16345066,22700,19640,-3604,-77,12,12,-0.955846,2.284216,1.695094
16360693,22642,19528,-3498,-80,11,8,-0.955921,2.284148,1.694856
16376320,22630,19486,-3438,-39,10,24,-0.955855,2.284109,1.694668
16391947,22608,19476,-3558,-8,0,50,-0.957068,2.283604,1.695390
16407573,22746,19428,-3478,-25,4,38,-0.958181,2.283146,1.696271
16423199,22736,19366,-3496,-49,17,7,-0.959446,2.282594,1.697099
16438825,22752,19370,-3456,-56,25,-5,-0.959511,2.282569,1.697117
16454451,22676,19430,-3572,-45,26,-3,-0.959186,2.282569,1.696689
16470077,22636,19460,-3420,-27,34,1,-0.959105,2.282722,1.696680
16485702,22596,19628,-3412,14,30,6,-0.959126,2.282680,1.696590
16501329,22696,19780,-3396,19,19,10,-0.959798,2.282738,1.697643
16516956,22772,19748,-3408,-16,9,11,-0.960360,2.282742,1.698402
16532582,22794,19634,-3568,-55,13,5,-0.960733,2.282843,1.698856
16548208,22816,19574,-3642,-80,30,-1,-0.960812,2.282839,1.698788
16563835,22752,19496,-3592,-74,45,-5,-0.960026,2.282954,1.697901
16579460,22620,19550,-3366,-20,49,9,-0.959657,2.282938,1.697365
16595086,22612,19622,-3304,3,34,16,-0.959419,2.282934,1.697035
16610713,22580,19638,-3394,-22,17,14,-0.959933,2.282772,1.697597
16626339,22668,19590,-3486,-61,8,9,-0.959985,2.282724,1.697701
16641965,22748,19486,-3630,-77,12,6,-0.960134,2.282780,1.697569
16657591,22714,19502,-3640,-67,29,7,-0.959930,2.282856,1.697351
16673217,22636,19494,-3586,-52,37,7,-0.959741,2.282741,1.696954
16688843,22650,19466,-3444,-51,35,8,-0.959914,2.282605,1.696809
16704470,22674,19504,-3364,-52,25,6,-0.959660,2.282515,1.696395
16720095,22830,19448,-3194,-40,14,-2,-0.959541,2.282523,1.696104
16735722,22858,19446,-3298,-11,15,1,-0.959533,2.282587,1.696109
16751348,22692,19466,-3380,5,31,14,-0.960115,2.282399,1.696690
16766975,22538,19450,-3396,-6,46,14,-0.960371,2.282276,1.697012
16782602,22416,19552,-3372,-17,38,3,-0.960662,2.282132,1.697158
16798229,22454,19730,-3348,-6,13,7,-0.960575,2.282200,1.697231
16813854,22594,19898,-3398,13,-16,27,-0.961169,2.282412,1.698275
16829481,22976,19958,-3526,-10,-27,37,-0.962074,2.282375,1.699207
16845107,23082,19662,-3582,-92,6,21,-0.963806,2.282027,1.700878
16860734,22928,19494,-3454,-124,47,15,-0.963693,2.281592,1.699871
16876360,22702,19312,-3490,-99,62,17,-0.963104,2.281463,1.698744
16891987,22500,19268,-3358,-62,51,17,-0.962004,2.281005,1.696867
16907613,22470,19292,-3210,-45,27,11,-0.961792,2.280830,1.696271
16923240,22514,19364,-3242,-40,1,7,-0.961535,2.280740,1.695857
16938867,22684,19530,-3322,-21,-16,10,-0.961788,2.280765,1.696103
16954493,22774,19664,-3450,8,-16,22,-0.963128,2.280783,1.697596
16970119,22888,19610,-3514,-25,3,20,-0.964652,2.280556,1.699307
16985746,22738,19480,-3464,-66,19,9,-0.965053,2.280404,1.699582
17001372,22674,19480,-3508,-88,20,1,-0.964890,2.280330,1.699014
17016998,22600,19432,-3374,-80,11,4,-0.964647,2.280474,1.698605
17032624,22660,19518,-3322,-31,2,10,-0.964373,2.280511,1.698199
17048250,22750,19692,-3380,7,-4,21,-0.964614,2.280516,1.698531
17063876,22852,19668,-3310,-28,3,20,-0.966129,2.280316,1.699963
17079501,22872,19452,-3254,-80,9,2,-0.966194,2.280291,1.699981
17095127,22814,19268,-3282,-76,14,-13,-0.965545,2.280308,1.699039
17110754,22798,19266,-3344,-18,17,7,-0.965167,2.280438,1.698425
17126380,22658,19328,-3340,23,19,21,-0.965504,2.280311,1.698681
17142005,22592,19468,-3280,32,11,14,-0.966885,2.279866,1.700069
17157631,22708,19538,-3264,12,-8,5,-0.967458,2.279873,1.700829
17173257,22804,19588,-3328,-6,-13,1,-0.968675,2.279948,1.702286
17188884,22856,19570,-3414,-13,1,-2,-0.968969,2.280122,1.702812
17204510,22784,19584,-3484,-11,15,7,-0.969724,2.280247,1.703803
17220137,22748,19576,-3340,-10,13,23,-0.969899,2.280278,1.704117
17235763,22638,19610,-3350,-2,4,21,-0.970572,2.280026,1.704631
17251390,22684,19658,-3384,-17,5,14,-0.971275,2.279985,1.705428
17267017,22732,19642,-3422,-46,4,11,-0.971589,2.279902,1.705775
17282643,22784,19568,-3508,-61,0,21,-0.971946,2.279948,1.705868
17298269,22836,19484,-3478,-60,4,27,-0.972168,2.279829,1.705835
17313896,22922,19462,-3408,-52,23,21,-0.972595,2.279358,1.705766
17329521,22854,19432,-3340,-46,50,12,-0.972485,2.279300,1.705471
17345148,22782,19442,-3222,-58,57,7,-0.971741,2.278981,1.704305
17360775,22704,19432,-3218,-72,22,11,-0.970689,2.278830,1.702708
17376402,22788,19380,-3326,-49,8,20,-0.970445,2.278759,1.702208
17392027,22854,19462,-3468,-15,19,24,-0.970877,2.278437,1.702224
17407653,22876,19454,-3368,-9,36,18,-0.971266,2.278264,1.702587
17423279,22858,19490,-3236,-19,41,2,-0.971507,2.277953,1.702541
17438905,22786,19466,-3188,-40,33,-3,-0.971242,2.277990,1.702298
17454531,22748,19400,-3242,-56,20,5,-0.970506,2.278138,1.701593
17470158,22700,19324,-3276,-35,18,11,-0.970394,2.278081,1.701298
17485784,22686,19490,-3442,28,26,6,-0.970533,2.277967,1.701332
17501410,22766,19588,-3368,19,25,7,-0.971205,2.278012,1.702475
17517037,22876,19538,-3114,-13,9,6,-0.971530,2.278078,1.702907
17532663,22898,19462,-3284,-25,3,5,-0.971936,2.278141,1.703273
17548289,22884,19404,-3394,-21,13,4,-0.971914,2.278184,1.703363
17563915,22734,19454,-3528,0,24,3,-0.972444,2.278111,1.703849
17579541,22744,19642,-3472,23,27,9,-0.972627,2.278079,1.704159
17595167,22828,19714,-3328,18,20,15,-0.973596,2.278066,1.705368
17610792,22866,19644,-3370,-16,14,16,-0.973954,2.278066,1.705991
17626418,22868,19498,-3442,-36,21,16,-0.974219,2.278029,1.706234
17642052,22834,19440,-3396,-41,34,7,-0.974249,2.277858,1.705974
17657678,22828,19474,-3386,-32,37,8,-0.974123,2.277780,1.705765
17673304,22820,19510,-3382,-20,34,28,-0.973733,2.277738,1.705314
17688929,22768,19624,-3480,-27,32,43,-0.973967,2.277490,1.705273
17704554,22748,19492,-3450,-57,33,26,-0.974426,2.276846,1.705107
17720181,22752,19420,-3398,-81,34,-6,-0.974118,2.276800,1.704588
17735807,22700,19314,-3278,-66,33,-8,-0.973002,2.276992,1.703348
17751434,22730,19320,-3316,-14,24,7,-0.972104,2.277130,1.702242
17767061,22786,19480,-3338,27,18,10,-0.972354,2.277072,1.702571
17782687,22874,19588,-3400,16,17,10,-0.973327,2.277059,1.703781
17798313,22868,19628,-3380,-18,23,6,-0.973437,2.277116,1.704076
17813940,22868,19518,-3306,-38,28,1,-0.973578,2.277215,1.704199
17829566,22818,19464,-3314,-39,28,0,-0.973380,2.277227,1.703975
17845192,22776,19460,-3330,-28,19,0,-0.972843,2.277364,1.703493
17860817,22708,19568,-3394,5,16,9,0.700413,1.988675,-2.285482
17876444,22770,19594,-3462,14,21,12,-0.973323,2.277506,1.704330
17892071,22872,19626,-3386,1,20,6,-0.974094,2.277505,1.705315
17907698,22880,19590,-3358,-26,15,0,-0.974293,2.277493,1.705539
17923325,22950,19512,-3348,-33,15,3,-0.974340,2.277726,1.705737
17938951,22864,19482,-3460,-14,22,10,-0.974267,2.277815,1.705722
17954577,22770,19470,-3454,-3,31,7,-0.974677,2.277600,1.705995
17970203,22736,19550,-3388,5,33,2,-0.974875,2.277589,1.706219
17985829,22862,19614,-3370,-6,21,11,-0.974829,2.277740,1.706565
18001456,22902,19494,-3358,-28,8,5,-0.975291,2.277692,1.707032
18017081,23022,19412,-3506,-33,12,-2,-0.975219,2.277782,1.707017
18032708,22894,19386,-3460,-10,31,-2,-0.975478,2.277810,1.707264
18048334,22746,19508,-3478,23,54,0,-0.975411,2.277835,1.707245
18063960,22602,19570,-3338,26,54,0,-0.975374,2.277857,1.707583
18079586,22610,19608,-3298,7,27,3,-0.975347,2.277963,1.707839
18095211,22714,19606,-3394,-10,3,-3,-0.975317,2.278349,1.708187
18110838,22844,19526,-3454,-19,-7,-4,-0.975348,2.278560,1.708470
18126465,22938,19486,-3612,-12,15,-3,-0.976049,2.278800,1.709361
18142091,22814,19484,-3620,1,42,-2,-0.976348,2.278911,1.709883
18157718,22672,19592,-3490,13,46,2,-0.976263,2.278914,1.709950
18173343,22562,19644,-3476,17,30,9,-0.976380,2.279056,1.710324
18188969,22626,19728,-3458,20,6,14,-0.976397,2.279181,1.710689
18204595,22782,19722,-3454,0,-13,17,-0.977399,2.279189,1.712006
18220222,22934,19682,-3540,-13,-13,15,-0.977978,2.279286,1.712684
18235848,22974,19588,-3580,-25,7,6,-0.978939,2.279278,1.713728
18251475,22878,19558,-3546,-35,40,-1,-0.978957,2.279299,1.713642
18267102,22636,19572,-3506,-28,39,6,-0.978622,2.279424,1.713384
18282728,22608,19548,-3400,-16,8,20,-0.978235,2.279381,1.712933
18298355,22862,19554,-3550,-2,-18,17,-0.978499,2.279345,1.713176
18313981,23018,19576,-3536,-1,-9,2,-0.979920,2.279292,1.714687
18329607,23036,19582,-3524,-11,21,-1,-0.980217,2.279404,1.715208
18345234,22844,19576,-3564,-9,39,4,-0.980198,2.279383,1.715294
18360861,22754,19570,-3496,-3,39,5,-0.980129,2.279407,1.715275
18376487,22792,19610,-3468,-4,19,-1,-0.979991,2.279456,1.715237
18392113,22788,19588,-3514,-12,10,-8,-0.980147,2.279682,1.715722
18407739,22820,19514,-3524,-17,14,-14,-0.980128,2.279940,1.715897
18423365,22768,19524,-3500,0,27,-8,-0.979967,2.280312,1.716038
18438991,22750,19588,-3588,22,32,5,-0.980021,2.280415,1.716226
18454616,22732,19620,-3632,28,35,4,-0.980230,2.280465,1.716811
18470242,22788,19664,-3494,9,39,-8,-0.980477,2.280557,1.717223
18485869,22816,19794,-3516,3,39,-5,-0.980017,2.280856,1.717290
18501496,22648,19736,-3608,-5,28,23,-0.979807,2.280994,1.717236
18517122,22630,19672,-3604,-8,17,29,-0.979980,2.280962,1.717546
18532749,22568,19612,-3664,-9,7,20,-0.980647,2.280712,1.718063
18548376,22584,19586,-3646,2,1,22,-0.981172,2.280643,1.718548
18564001,22634,19658,-3554,24,-15,35,-0.982394,2.280471,1.719828
18579627,22816,19836,-3598,32,-37,43,-0.983283,2.280425,1.720850
18595253,23024,19920,-3618,11,-42,40,-0.985843,2.280017,1.723536
18610879,23216,19898,-3668,-30,-21,29,-0.986892,2.279881,1.724509
18626505,23180,19800,-3642,-76,22,26,-0.987651,2.279549,1.724882
18642132,22988,19700,-3660,-63,42,46,-0.987369,2.278968,1.723746
18657758,22852,19642,-3552,-53,44,54,-0.987379,2.278582,1.723210
18673384,22722,19658,-3522,-46,33,43,-0.987304,2.277665,1.722121
18689010,22786,19520,-3560,-67,13,25,-0.987201,2.277393,1.721742
18704636,22942,19412,-3508,-101,-5,9,-0.986753,2.277250,1.720745
18720262,23158,19376,-3600,-79,-6,1,-0.986477,2.277289,1.720145
18735888,23198,19438,-3512,-15,21,12,-0.986461,2.277146,1.719705
18751514,22982,19574,-3564,37,50,28,-0.986673,2.276877,1.719755
18767140,22686,19666,-3610,7,52,31,-0.987180,2.276309,1.720231
18782767,22578,19748,-3556,-53,36,22,-0.987169,2.275985,1.719858
18798393,22582,19600,-3626,-98,16,13,-0.986782,2.276006,1.719409
18814019,22534,19486,-3656,-111,-13,10,-0.985801,2.276277,1.718016
18829645,22628,19334,-3606,-77,-38,17,-0.985499,2.276361,1.717504
18845271,22842,19384,-3616,1,-53,27,-0.986715,2.276394,1.718444
18860897,22992,19560,-3606,70,-45,28,-0.987950,2.276292,1.719734
18876524,23108,19862,-3676,110,-18,16,-0.990991,2.276101,1.723436
18892149,23078,20144,-3636,55,-2,33,-0.993204,2.276142,1.726572
18907776,23090,20196,-3534,-16,-12,71,-0.994117,2.276056,1.727510
18923402,23162,20084,-3554,-77,-17,75,-0.995371,2.275164,1.728016
18939029,23186,19870,-3656,-147,-6,39,-0.995791,2.274764,1.727770
18954655,23192,19574,-3496,-210,21,17,-0.994607,2.274423,1.725260
18970281,23086,19374,-3436,-181,40,18,-0.993348,2.274315,1.723169
18985907,23036,19240,-3416,-128,32,29,-0.990881,2.273792,1.719275
19001534,23050,19238,-3356,-79,12,32,-0.990578,2.273421,1.718223
19017160,23042,19406,-3592,-23,17,23,-0.990766,2.272620,1.717300
19032786,23012,19394,-3560,-30,32,3,-0.990978,2.272416,1.717354
19048411,22952,19476,-3442,-33,37,-5,-0.990639,2.272540,1.717092
19064037,22948,19620,-3456,-10,32,6,-0.989855,2.272662,1.716269
19079664,22886,19732,-3234,16,19,21,-0.989763,2.272731,1.716338
19095291,22896,19824,-3402,29,-10,30,-0.990339,2.272681,1.717099
19110917,22936,19802,-3644,-40,-27,34,-0.991072,2.272603,1.717815
19126544,23114,19700,-3862,-98,-26,21,-0.991941,2.272676,1.718583
19142170,23184,19556,-3624,-118,0,9,-0.992024,2.272614,1.717999
19157797,23166,19424,-3348,-105,20,9,-0.991494,2.272684,1.717348
19173423,23042,19426,-3238,-50,43,7,-0.990318,2.272588,1.715459
19189050,22852,19456,-3368,-40,44,-4,-0.989791,2.272462,1.714797
19204676,22722,19442,-3326,-93,17,-5,-0.988477,2.272737,1.713401
19220303,22742,19228,-3382,-142,-23,-6,-0.987747,2.272966,1.712606
19235929,22916,19098,-3410,-143,-50,-20,-0.986717,2.273446,1.711135
19251556,23078,19074,-3370,-107,-62,-33,-0.986512,2.273736,1.710838
19267182,23120,19220,-3124,-24,-55,-19,-0.986679,2.274526,1.711176
19282808,23080,19520,-3018,88,-40,-3,-0.988354,2.274819,1.713012
19298433,23104,19926,-3122,157,-39,2,-0.989715,2.274891,1.714852
19314060,23142,20150,-3184,105,-42,6,-0.992722,2.275283,1.719218
19329688,23188,20196,-3222,30,-49,28,-0.993671,2.275589,1.720689
19345315,23282,20058,-3336,-12,-60,40,-0.995716,2.275640,1.722974
19360941,23378,19848,-3496,-89,-45,25,-0.996601,2.275587,1.723732
19376567,23412,19580,-3558,-164,-3,-5,-0.996486,2.275532,1.722921
19392194,23338,19498,-3352,-125,43,-16,-0.994088,2.275759,1.719772
19407820,23204,19586,-3294,-55,31,6,-0.993133,2.275731,1.718385
19423447,23274,19558,-3442,-63,13,20,-0.992298,2.275569,1.717123
19439073,23250,19352,-3476,-122,22,7,-0.992195,2.275314,1.716663
19454699,23142,19272,-3212,-151,49,-10,-0.990504,2.275122,1.714142
19470326,23048,19216,-3128,-69,65,-2,-0.989102,2.275092,1.712392
19485953,22948,19310,-3306,41,47,12,-0.987529,2.274832,1.710319
19501580,23012,19296,-3578,42,19,3,-0.988074,2.274615,1.710890
19517207,23076,19362,-3508,-23,13,-12,-0.988995,2.274686,1.712172
19532833,23016,19368,-3208,-54,20,7,-0.988732,2.274804,1.711843
19548459,22938,19304,-3022,-18,10,28,-0.988392,2.274732,1.711411
19564085,22950,19390,-3130,44,-4,18,-0.989261,2.274134,1.711717
19579712,23032,19410,-3258,13,-19,-13,-0.989858,2.274153,1.712481
19595338,23050,19294,-3220,-53,-26,-21,-0.990639,2.274554,1.713646
19610965,23118,19400,-3260,-50,-31,-8,-0.990465,2.274843,1.713701
19626591,23262,19464,-3260,49,-26,8,-0.991227,2.274986,1.714337
19642216,23260,19874,-3384,157,-3,10,-0.994012,2.274835,1.717758
19657842,23244,20068,-3438,54,5,4,-0.995219,2.274941,1.719642
19673469,23160,19842,-3422,-111,16,-4,-0.995584,2.275359,1.720515
19689095,23032,19564,-3408,-196,21,-5,-0.994461,2.275554,1.719179
19704721,22982,19394,-3406,-178,10,-2,-0.991492,2.275734,1.715288
19720348,23120,19374,-3410,-70,0,1,-0.990511,2.275836,1.713905
19735975,23222,19626,-3270,17,0,6,-0.990526,2.275792,1.713655
19751601,23160,19710,-3058,-4,-1,10,-0.990919,2.275821,1.714193
19767227,23214,19478,-3078,-107,-4,6,-0.991147,2.275703,1.714166
19782853,23244,19298,-3342,-150,1,1,-0.989940,2.275573,1.711945
19798480,23452,19554,-3408,-21,52,9,-0.989049,2.275520,1.710774
19814106,23456,19936,-3234,105,106,8,-0.988819,2.275117,1.710266
19829733,23290,20168,-3280,16,112,-6,-0.988670,2.274931,1.710390
19845360,23130,19916,-3312,-219,115,-12,-0.985654,2.275184,1.707603
19860987,23010,19476,-3330,-338,122,2,-0.982540,2.275311,1.703938
19876613,23062,19210,-3368,-232,122,11,-0.975813,2.275117,1.695282
19892240,23340,19458,-3580,-21,144,4,-0.973563,2.274721,1.692275
19907867,23260,19736,-3358,-5,138,6,-0.971870,2.274255,1.690226
19923493,23126,19366,-3134,-203,139,11,-0.969153,2.273991,1.687332
19939120,22822,18986,-2884,-273,159,4,-0.966354,2.273720,1.683656
19954746,22528,18856,-2932,-176,131,7,-0.960066,2.273160,1.675618
19970373,22378,18814,-3074,-79,66,29,-0.958276,2.272934,1.673240
19986000,22514,18910,-3134,-17,8,55,-0.958023,2.272112,1.672109
20001627,22744,19090,-3164,19,-27,52,-0.960979,2.271070,1.674401
20017254,22912,19342,-2850,5,-30,44,-0.962732,2.270739,1.675972
20032880,22822,19310,-2738,-28,-33,51,1.181078,-0.593904,0.573453
20048507,22938,19218,-2884,-29,-30,47,-0.966234,2.269535,1.678422
20064134,23200,19380,-3072,35,-11,28,-0.968460,2.268834,1.680127
20079760,23244,19742,-3122,38,-7,25,-0.969507,2.268676,1.681263
20095386,23218,19788,-2952,-57,3,21,-0.971534,2.268490,1.683348
20111012,23058,19702,-2866,-153,18,18,-0.971436,2.268447,1.683166
20126638,22888,19318,-2866,-198,5,21,-0.969604,2.268343,1.680283
20142265,23042,18908,-3080,-174,-14,13,-0.968489,2.268317,1.678731
20157892,23222,19034,-3190,-33,0,4,-0.967823,2.267998,1.677229
20173517,23102,19310,-2852,3,4,17,-0.969378,2.267701,1.678497
20189143,23024,19424,-2690,-49,1,19,-0.970023,2.267540,1.679006
20204770,23030,19374,-2708,-82,0,15,-0.970062,2.267400,1.678774
20220397,23134,19314,-2868,-31,8,9,-0.969679,2.267411,1.678258
20236024,23136,19338,-2906,5,-2,9,-0.970306,2.267313,1.678773
20251649,23148,19306,-3048,-52,-8,10,-0.971152,2.267186,1.679600
20267275,23162,19360,-3032,-113,6,10,-0.971550,2.267198,1.679722
20282902,23004,19300,-2944,-114,15,19,-0.971078,2.267102,1.679019
20298528,23054,19352,-2942,-4,10,21,-0.970608,2.266850,1.677969
20314153,22996,19412,-2874,-7,0,19,-0.971770,2.266645,1.678951
20329779,23034,19322,-2860,-104,0,11,-0.972115,2.266583,1.679220
20345405,23016,19100,-2734,-141,-4,10,-0.971464,2.266569,1.678145
20361031,22990,18940,-2664,-104,-23,11,-0.970990,2.266491,1.677355
20376657,23126,18854,-2686,-69,-53,5,-0.971269,2.266281,1.677038
20392283,23334,18952,-2798,-35,-52,6,-0.971947,2.266238,1.677495
20407909,23448,19246,-2878,56,-23,16,-0.974292,2.265992,1.679502
20423535,23306,19564,-2898,55,0,25,-0.977265,2.265532,1.682588
20439160,23196,19534,-2914,-43,1,21,-0.978051,2.265417,1.683483
20454787,23090,19416,-2792,-98,4,7,-0.978328,2.265287,1.683392
20470413,23090,19228,-2850,-91,0,-2,-0.977948,2.265315,1.682789
20486039,23126,19198,-2806,-71,-22,-3,-0.977161,2.265591,1.681934
20501665,23204,19030,-2758,-66,-35,-7,-0.977419,2.265700,1.682106
20517290,23372,18956,-2806,-45,-36,-9,-0.978016,2.265830,1.682466
20532916,23416,19030,-2872,0,-23,5,-0.978550,2.265867,1.683059
20548542,23156,19308,-2796,10,-6,16,-0.980423,2.265530,1.684673
20564168,23142,19334,-2668,12,-23,18,-0.981883,2.265280,1.685995
20579794,23214,19326,-2736,1,-39,11,-0.982806,2.265134,1.686849
20595421,23536,19364,-3004,-10,-24,-1,-0.984463,2.265281,1.688494
20611051,23520,19492,-2938,-6,15,1,-0.984929,2.265329,1.689152
20626677,23248,19524,-2776,-37,33,7,-0.985298,2.265207,1.689418
20642303,23128,19274,-2634,-75,24,0,-0.984727,2.265292,1.688835
20657929,23132,19116,-2838,-76,9,0,-0.983309,2.265400,1.687284
20673556,23286,19058,-2830,-31,10,7,-0.983238,2.265330,1.686924
20689182,23274,19128,-2740,2,11,5,-0.983208,2.265198,1.686760
20704808,23226,19224,-2712,-3,5,10,-0.983939,2.264935,1.687379
20720433,23204,19188,-2710,-26,3,11,-0.984319,2.264831,1.687558
20736058,23266,19162,-2764,-12,-5,5,-0.984760,2.264702,1.687760
20751685,23238,19096,-2734,9,-11,1,-0.985103,2.264624,1.688118
20767312,23276,19156,-2754,4,-17,-2,-0.986332,2.264644,1.689390
20782939,23372,19220,-2764,3,-17,1,-0.986826,2.264648,1.689956
20798565,23490,19416,-2980,26,-8,12,-0.988055,2.264669,1.691228
20814191,23404,19530,-2910,0,3,15,-0.989746,2.264417,1.692780
20829817,23282,19506,-2832,-43,16,12,-0.990037,2.264384,1.693029
20845444,23158,19436,-2742,-77,20,4,-0.989362,2.264424,1.692263
20861070,23118,19188,-2744,-95,9,-3,-0.988763,2.264375,1.691517
20876696,23232,19030,-2686,-81,-10,-6,-0.987488,2.264644,1.690089
20892322,23260,19030,-2870,-59,-12,-7,-0.987261,2.264751,1.689694
20907947,23350,19158,-2864,-29,-3,8,-0.987467,2.264711,1.689588
20923573,23372,19236,-2858,13,-7,26,-0.987659,2.264553,1.689739
20939199,23320,19400,-2826,28,-12,23,-0.989492,2.263991,1.691166
20954826,23332,19462,-2842,-16,-1,16,-0.990963,2.263748,1.692494
20970452,23350,19424,-2912,-59,14,9,-0.991397,2.263602,1.692784
20986079,23316,19402,-2894,-60,22,5,-0.990727,2.263659,1.691931
21001705,23296,19318,-2836,-66,16,13,-0.989980,2.263545,1.690889
21017332,23286,19138,-2724,-82,10,9,-0.989615,2.263507,1.690281
21032959,23282,19022,-2712,-78,3,2,-0.989148,2.263343,1.689575
21048586,23338,18926,-2632,-51,-3,4,-0.988760,2.263189,1.688718
21064212,23420,19006,-2778,-6,-12,6,-0.989267,2.263035,1.688944
21079838,23386,19168,-2702,11,-8,8,-0.989998,2.262856,1.689485
21095464,23316,19288,-2638,16,-12,15,-0.991159,2.262691,1.690657
21111090,23400,19326,-2780,9,-23,16,-0.991738,2.262609,1.691243
21126717,23500,19416,-2866,-1,-20,10,-0.993203,2.262431,1.692579
21142343,23534,19406,-2910,-7,-6,7,-0.993959,2.262468,1.693199
21157970,23496,19486,-2836,-31,12,6,-0.994601,2.262361,1.693809
21173597,23370,19386,-2804,-63,20,7,-0.994290,2.262456,1.693564
21189224,23320,19262,-2730,-74,23,2,-0.993499,2.262403,1.692324
21204850,23300,19250,-2714,-68,23,2,-0.992045,2.262485,1.690855
21220477,23330,19122,-2644,-72,20,3,-0.991704,2.262400,1.690155
21236104,23388,19082,-2700,-63,13,1,-0.990462,2.262280,1.688746
21251731,23458,19104,-2696,-32,13,4,-0.990246,2.262323,1.688346
21267357,23394,19114,-2760,-2,20,11,-0.990319,2.262055,1.688111
21282983,23364,19202,-2824,16,24,15,-0.990478,2.261878,1.688148
21298609,23318,19262,-2824,14,22,8,-0.991150,2.261626,1.688835
21314235,23334,19318,-2772,-11,12,7,-0.991464,2.261530,1.689080
21329862,23388,19300,-2804,-33,13,5,-0.991620,2.261613,1.689288
21345489,23466,19260,-2826,-41,21,4,-0.991291,2.261511,1.688877
21361116,23418,19254,-2900,-37,33,10,-0.991144,2.261447,1.688582
21376743,23342,19250,-2770,-39,30,12,-0.990624,2.261244,1.687847
21392369,23292,19258,-2706,-47,20,9,-0.990425,2.261224,1.687441
21407995,23428,19174,-2738,-44,14,5,-0.989885,2.261084,1.686711
21423621,23430,19274,-2782,-35,18,4,-0.989709,2.261065,1.686508
21439248,23430,19186,-2706,-35,27,5,-0.989404,2.260919,1.686005
21454874,23346,19140,-2704,-19,33,10,-0.989046,2.260817,1.685390
21470501,23274,19170,-2726,-15,25,11,-0.988960,2.260628,1.685287
21486127,23254,19206,-2752,-25,9,9,-0.989128,2.260469,1.685236
21501754,23364,19256,-2818,-30,-1,4,-0.989188,2.260443,1.685260
21517381,23494,19278,-2738,-25,2,6,-0.989476,2.260491,1.685428
21533007,23484,19262,-2774,-25,18,8,-0.989783,2.260477,1.685591
21548634,23494,19260,-2820,-33,30,12,-0.989766,2.260281,1.685425
21564260,23264,19218,-2672,-34,34,12,-0.989309,2.260231,1.684966
21579886,23264,19180,-2734,-35,27,9,-0.988872,2.259958,1.684161
21595512,23296,19168,-2684,-36,15,8,-0.988424,2.259926,1.683615
21611138,23460,19160,-2738,-27,5,8,-0.988325,2.259818,1.683430
21626763,23496,19152,-2748,-21,12,8,-0.988772,2.259689,1.683635
21642389,23430,19232,-2806,-18,26,9,-0.988912,2.259574,1.683677
21658016,23332,19240,-2748,-23,28,11,-0.988834,2.259404,1.683486
21673641,23326,19234,-2734,-34,17,9,-0.988535,2.259436,1.683236
21689267,23430,19204,-2780,-29,7,7,-0.988444,2.259346,1.682964
21704893,23584,19218,-2816,-8,12,9,-0.989131,2.259211,1.683396
21720519,23568,19284,-2706,0,30,11,-0.989510,2.259090,1.683665
21736146,23428,19320,-2752,-6,43,11,-0.989363,2.258927,1.683537
21751773,23236,19346,-2764,-21,36,11,-0.989224,2.258782,1.683323
21767399,23248,19290,-2834,-42,27,7,-0.988767,2.258733,1.682863
21783024,23316,19208,-2766,-59,21,4,-0.988396,2.258872,1.682507
21798651,23438,19120,-2676,-54,17,2,-0.987773,2.258839,1.681671
21814278,23416,19154,-2694,-35,16,4,-0.987541,2.258864,1.681357
21829903,23450,19132,-2752,3,27,7,-0.987441,2.258755,1.681172
21845529,23368,19200,-2758,11,26,10,-0.987922,2.258483,1.681452
21861156,23364,19244,-2762,1,24,9,-0.988155,2.258459,1.681766
21876782,23396,19336,-2792,-16,21,4,-0.988474,2.258363,1.682011
21892408,23376,19280,-2786,-24,19,3,-0.988394,2.258452,1.681993
21908035,23422,19306,-2828,-26,19,3,-0.988314,2.258541,1.681975
21923661,23432,19278,-2806,-25,27,6,-0.988233,2.258629,1.681957
21939288,23404,19246,-2752,-30,31,9,-0.988074,2.258547,1.681748
21954915,23378,19226,-2690,-50,22,5,-0.987711,2.258445,1.681132
21970541,23426,19228,-2648,-51,15,1,-0.987231,2.258459,1.680678
21986167,23446,19130,-2690,-47,17,-2,-0.986764,2.258508,1.680050
22001792,23412,19154,-2820,-31,21,2,-0.986370,2.258450,1.679527
22017419,23400,19176,-2872,-14,26,5,-0.986370,2.258450,1.679527
22033051,23324,19264,-2754,-6,26,6,-0.986663,2.258399,1.679865
22048676,23350,19308,-2744,-12,19,7,-0.986604,2.258426,1.679841
22064303,23326,19318,-2706,-16,17,6,-0.986904,2.258393,1.680092
22079930,23412,19380,-2818,-35,19,6,-0.986823,2.258482,1.680074
22095556,23442,19308,-2856,-58,25,6,-0.986589,2.258506,1.679760
22111182,23360,19190,-2770,-70,29,4,-0.986442,2.258460,1.679377
22126809,23256,19126,-2658,-67,32,0,-0.985181,2.258537,1.678132
22142436,23200,19066,-2540,-56,19,5,-0.984651,2.258612,1.677480
22158063,23306,18970,-2524,-27,-5,2,-0.984229,2.258617,1.676964
22173689,23482,19092,-2806,-4,-12,3,-0.984536,2.258602,1.677127
22189315,23562,19156,-2860,5,1,14,-0.985705,2.258497,1.678311
22204941,23468,19368,-2866,6,25,19,-0.986631,2.258336,1.679057
22220568,23308,19500,-2730,-2,30,13,-0.987382,2.258058,1.679769
22236194,23272,19508,-2614,-44,27,3,-0.987323,2.258084,1.679745
22251821,23350,19278,-2552,-95,17,-1,-0.986867,2.258312,1.679371
22267448,23488,19054,-2752,-108,12,-2,-0.985295,2.258537,1.677620
22283075,23552,18976,-2728,-80,25,0,-0.984627,2.258548,1.676876
22298700,23392,19016,-2638,-38,41,3,-0.983661,2.258350,1.675622
22314327,23248,19096,-2648,-12,37,7,-0.983615,2.258153,1.675249
22329954,23328,19194,-2686,-12,5,9,-0.983389,2.258080,1.675103
22345581,23432,19208,-2724,-17,2,6,-0.984214,2.258070,1.675838
22361207,23530,19228,-2714,-11,13,4,-0.984516,2.258037,1.676089
22376833,23492,19232,-2790,-3,26,7,-0.984982,2.258086,1.676549
22392460,23422,19208,-2752,-11,27,9,-0.985058,2.257979,1.676654
22408087,23456,19192,-2706,-19,25,8,-0.985442,2.257858,1.676923
22423713,23358,19216,-2650,-16,26,7,-0.985524,2.257770,1.676940
22439339,23430,19230,-2676,-22,26,9,-0.985221,2.257803,1.676689
22454965,23418,19226,-2668,-41,23,8,-0.985309,2.257732,1.676620
22470591,23506,19166,-2752,-47,28,4,-0.984907,2.257674,1.676097
22486217,23428,19234,-2678,-33,38,8,-0.984341,2.257535,1.675364
22501844,23368,19332,-2740,-29,44,11,-0.984038,2.257567,1.675113
22517471,23288,19286,-2774,-38,41,9,-0.983439,2.257393,1.674350
22533097,23306,19198,-2622,-45,31,6,-0.983141,2.257443,1.674011
22548723,23322,19028,-2634,-33,27,9,-0.982597,2.257501,1.673446
22564349,23380,19002,-2744,-6,22,11,-0.982515,2.257331,1.673254
22579975,23428,19046,-2760,20,16,8,-0.983199,2.257158,1.673861
22595601,23474,19144,-2732,33,17,15,-0.984699,2.256878,1.675166
22611227,23368,19202,-2776,32,17,16,-0.985287,2.256759,1.675931
22626854,23456,19338,-2802,28,18,10,-0.986641,2.256593,1.677195
22642480,23448,19460,-2722,2,26,7,-0.987093,2.256607,1.677830
22658106,23368,19402,-2758,-33,29,2,-0.987197,2.256715,1.678015
22673732,23430,19272,-2786,-49,25,1,-0.986820,2.256854,1.677659
22689357,23454,19170,-2848,-41,25,4,-0.986252,2.256956,1.677187
22704983,23474,19218,-2786,-20,34,5,-0.986008,2.256962,1.676960
22720610,23324,19246,-2722,-11,43,8,-0.986037,2.256918,1.676866
22736236,23296,19278,-2750,-21,35,9,-0.985759,2.256889,1.676608
22751863,23316,19270,-2822,-32,18,7,-0.985510,2.256878,1.676469
22767490,23442,19276,-2794,-31,11,6,-0.985486,2.256940,1.676475
22783117,23506,19268,-2782,-25,25,4,-0.985741,2.256969,1.676528
22798743,23410,19228,-2706,-28,38,4,-0.985491,2.256958,1.676388
22814369,23308,19214,-2738,-35,35,4,-0.985277,2.256920,1.676067
22829995,23296,19160,-2736,-30,23,4,-0.984649,2.257048,1.675571
22845621,23368,19202,-2748,-22,14,6,1.163493,-0.593201,0.568659
22861247,23408,19260,-2796,-18,18,9,-0.985008,2.256988,1.675847
22876874,23398,19278,-2842,-17,24,11,-0.985223,2.257026,1.676168
22892499,23380,19344,-2788,-26,27,11,-0.985473,2.257037,1.676308
22908124,23308,19242,-2752,-45,27,7,-0.985229,2.257044,1.676081
22923749,23352,19198,-2668,-52,24,4,-0.985071,2.256980,1.675784
22939375,23390,19176,-2720,-45,23,2,-0.984505,2.257099,1.675225
22955000,23326,19130,-2732,-41,23,4,-0.984347,2.257035,1.674929
22970627,23330,19052,-2824,-31,19,13,-0.984107,2.257059,1.674615
22986253,23382,19178,-2778,-9,10,11,-0.984636,2.256840,1.674838
23001880,23370,19292,-2836,9,9,13,-0.984636,2.256840,1.674838
23017507,23440,19366,-2830,-6,13,12,-0.985365,2.256865,1.675819
23033133,23472,19370,-2828,-33,23,7,-0.986128,2.256864,1.676618
23048760,23382,19322,-2726,-56,28,7,-0.985889,2.256888,1.676304
23064385,23356,19186,-2696,-65,30,6,-0.985649,2.256912,1.675989
23080011,23356,19084,-2766,-52,23,8,-0.984701,2.256911,1.674900
23095636,23380,19090,-2706,-37,15,10,-0.984542,2.256846,1.674604
23111261,23426,19134,-2764,-11,16,13,-0.984825,2.256634,1.674601
23126887,23444,19262,-2758,-1,22,13,-0.985509,2.256462,1.675208
23142513,23446,19346,-2744,-10,23,10,-0.985895,2.256341,1.675478
23158139,23414,19360,-2768,-32,25,13,-0.986141,2.256335,1.675705
23173765,23400,19224,-2808,-37,23,11,-0.985895,2.256341,1.675478
23189391,23376,19226,-2832,-34,21,8,-0.986040,2.256244,1.675433
23205017,23378,19204,-2694,-38,16,8,-0.986097,2.256217,1.675457
23220643,23398,19150,-2672,-44,12,9,-0.985826,2.256285,1.675237
23236268,23464,19192,-2728,-30,15,9,-0.985976,2.256206,1.675105
23251893,23478,19240,-2772,-19,13,10,-0.986115,2.256091,1.675147
23267520,23516,19254,-2788,-18,18,13,-0.986559,2.255943,1.675441
23283147,23488,19292,-2808,-14,34,15,-0.986863,2.255910,1.675693
23298773,23372,19238,-2702,-14,40,13,-0.987057,2.255689,1.675634
23314399,23288,19188,-2636,-31,28,11,-0.986887,2.255589,1.675512
23330024,23322,19142,-2662,-35,9,7,-0.986506,2.255728,1.675155
23345650,23482,19104,-2776,-21,3,6,-0.986563,2.255702,1.675180
23361276,23530,19158,-2790,-5,19,10,-0.987229,2.255610,1.675708
23376902,23414,19300,-2704,-3,37,12,-0.987775,2.255553,1.676275
23392528,23330,19336,-2712,-19,35,15,-0.987939,2.255377,1.676311
23408155,23272,19298,-2672,-41,24,6,-0.987635,2.255409,1.676059
23423781,23432,19270,-2744,-47,10,5,-0.987254,2.255548,1.675702
23439407,23508,19266,-2840,-45,13,9,-0.987292,2.255601,1.675646
23455033,23524,19202,-2856,-32,26,11,-0.987015,2.255652,1.675513
23470660,23486,19202,-2662,-21,33,10,-0.987242,2.255466,1.675486
23486286,23310,19150,-2662,-19,36,7,-0.986967,2.255454,1.675140
23501913,23342,19164,-2690,-18,23,2,-0.986797,2.255354,1.675018
23517539,23448,19188,-2804,-10,14,4,-0.986880,2.255525,1.675209
23533166,23510,19262,-2890,-11,15,9,-0.987132,2.255536,1.675349
23548793,23500,19274,-2848,-19,26,9,-0.987655,2.255542,1.675923
23564419,23434,19316,-2762,-22,31,7,-0.987737,2.255454,1.675940
23580052,23404,19356,-2748,-26,28,5,-0.987350,2.255574,1.675671
23595678,23422,19262,-2730,-37,26,4,-0.987350,2.255574,1.675671
23611304,23428,19146,-2688,-34,24,1,-0.986938,2.255758,1.675408
23626931,23388,19102,-2760,-22,28,8,-0.986778,2.255693,1.675111
23642558,23334,19140,-2778,-14,28,12,-0.986778,2.255693,1.675111
23658183,23356,19242,-2810,-4,20,12,-0.987108,2.255598,1.675356
23673810,23338,19382,-2708,-8,12,9,-0.987325,2.255636,1.675677
23689436,23438,19364,-2842,-27,13,9,-0.987795,2.255686,1.676139
23705062,23434,19334,-2832,-45,23,8,-0.987683,2.255819,1.676215
23720688,23400,19238,-2752,-45,28,8,-0.987529,2.255772,1.675831
23736314,23340,19160,-2748,-39,29,5,-0.987286,2.255795,1.675516
23751941,23412,19118,-2752,-38,22,8,-0.986790,2.255808,1.675062
23767568,23410,19146,-2776,-27,18,10,-0.986882,2.255754,1.674905
23783194,23404,19288,-2776,-13,24,12,-0.986934,2.255710,1.675017
23798820,23390,19298,-2712,-9,23,10,-0.987322,2.255589,1.675287
23814446,23448,19358,-2798,-18,19,11,-0.987317,2.255572,1.675375
23830071,23440,19294,-2746,-35,18,10,-0.987541,2.255628,1.675608
23845697,23462,19254,-2772,-42,16,8,-0.987546,2.255645,1.675521
23861324,23490,19182,-2798,-38,19,10,-0.987360,2.255642,1.675231
23876951,23396,19230,-2802,-22,25,11,-0.987639,2.255413,1.675317
23892578,23414,19260,-2758,-23,22,12,-0.987639,2.255413,1.675317
23908204,23390,19278,-2740,-35,19,11,-0.987696,2.255386,1.675342
23923830,23436,19318,-2762,-53,16,7,-0.987701,2.255404,1.675254
23939456,23446,19208,-2708,-61,19,5,-0.987265,2.255406,1.674738
23955082,23396,19206,-2770,-54,22,7,-0.986938,2.255518,1.674405
23970708,23442,19160,-2672,-44,20,6,-0.986784,2.255488,1.673934
23986335,23380,19124,-2790,-39,20,7,-0.986504,2.255538,1.673801
24003218,23420,19052,-2660,-23,22,8,-0.986480,2.255358,1.673547
24018845,23414,19230,-2624,-12,17,9,-0.986787,2.255326,1.673799
24034471,23468,19256,-2702,-17,14,9,-0.986787,2.255326,1.673799
24050098,23444,19256,-2710,-25,17,7,-0.987094,2.255294,1.674051
24065724,23440,19226,-2730,-32,18,8,-0.987319,2.255349,1.674285
24081350,23444,19196,-2674,-39,18,7,-0.987380,2.255340,1.674222
24096976,23416,19238,-2662,-37,21,6,-0.987186,2.255320,1.674020
24112601,23424,19228,-2770,-28,19,8,-0.987108,2.255425,1.673915
24128228,23458,19260,-2716,-30,18,9,-0.987165,2.255399,1.673939
24143854,23450,19242,-2726,-40,22,7,-0.987169,2.255416,1.673852
24159480,23406,19168,-2712,-40,27,8,-0.987057,2.255307,1.673668
24175106,23376,19180,-2674,-36,27,7,-0.986806,2.255313,1.673441
24190732,23310,19160,-2690,-27,20,10,-0.986641,2.255248,1.673144
24206358,23436,19236,-2746,-24,13,9,-0.986645,2.255265,1.673057
24221984,23532,19250,-2726,-24,19,11,-0.986923,2.255277,1.673403
24237611,23446,19218,-2666,-26,28,9,-0.987319,2.255174,1.673586
24253237,23404,19218,-2684,-35,32,6,-0.987150,2.255091,1.673377
24268863,23354,19218,-2628,-37,27,7,-0.986589,2.255129,1.672898
24284489,23456,19176,-2756,-39,16,4,-0.986593,2.255147,1.672810
24300115,23514,19156,-2684,-39,16,5,-0.986570,2.255225,1.672729
24315742,23492,19170,-2734,-35,28,8,-0.986317,2.255231,1.672502
24331369,23442,19196,-2712,-32,32,6,-0.986152,2.255166,1.672206
24346995,23394,19254,-2658,-28,27,7,-0.986239,2.255095,1.672136
24362622,23418,19228,-2696,-41,22,5,-0.985986,2.255100,1.671909
24378248,23448,19212,-2744,-45,21,6,-0.985652,2.255212,1.671576
24393875,23464,19136,-2734,-34,25,8,-0.985399,2.255218,1.671349
24409501,23378,19126,-2714,-27,26,9,-0.985541,2.255120,1.671305
24425128,23414,19186,-2690,-22,25,5,-0.985541,2.255120,1.671305
24440754,23396,19218,-2678,-28,19,9,-0.985628,2.255049,1.671235
24456380,23448,19272,-2690,-30,14,6,-0.985597,2.255093,1.671330
24472006,23462,19266,-2740,-25,20,3,-0.985827,2.255166,1.671476
24487632,23444,19180,-2710,-29,23,6,-0.985743,2.255255,1.671458
24503258,23480,19122,-2778,-25,23,3,-0.985799,2.255228,1.671483
24518884,23444,19196,-2732,-20,23,7,-0.985799,2.255228,1.671483
24534510,23396,19216,-2724,-16,21,9,-0.986109,2.255196,1.671735
24550137,23416,19294,-2650,-19,19,6,-0.986419,2.255163,1.671987
24565763,23402,19288,-2642,-28,16,4,-0.986331,2.255234,1.672057
24581389,23452,19246,-2650,-38,20,7,-0.986304,2.255296,1.672063
24597014,23456,19164,-2636,-43,26,6,-0.985966,2.255390,1.671818
24612641,23470,19098,-2706,-21,33,2,-0.985886,2.255253,1.671452
24628268,23434,19100,-2666,-6,37,1,-0.985488,2.255357,1.671269
24643894,23438,19096,-2632,-1,31,3,-0.985774,2.255306,1.671402
24659520,23444,19148,-2682,-3,19,1,-0.986025,2.255284,1.671717
24675147,23468,19206,-2800,-2,24,2,-0.986195,2.255366,1.671926
24690773,23464,19302,-2704,2,34,6,-0.986359,2.255415,1.672310
24706399,23360,19274,-2814,-2,29,8,-0.986525,2.255480,1.672606
24722024,23382,19228,-2786,-10,23,5,-0.987032,2.255469,1.673060
24737650,23464,19274,-2718,-27,21,9,-0.987254,2.255508,1.673382
24753276,23486,19254,-2702,-42,22,7,-0.987170,2.255596,1.673363
24768903,23516,19266,-2668,-51,27,2,-0.986668,2.255625,1.672822
24784529,23452,19232,-2726,-52,33,8,-0.986414,2.255630,1.672594
24800155,23420,19162,-2692,-55,32,6,-0.985687,2.255620,1.671731
24815781,23354,19112,-2678,-46,30,1,-0.985466,2.255598,1.671323
24831407,23386,19110,-2708,-29,24,1,-0.984873,2.255698,1.670850
24847034,23342,19178,-2740,-9,13,4,-0.984873,2.255698,1.670850
24862661,23526,19190,-2792,5,12,4,-0.985665,2.255716,1.671563
24878287,23472,19272,-2750,2,23,5,-0.986449,2.255700,1.672451
24893914,23458,19358,-2742,-7,29,5,-0.986616,2.255765,1.672747
24909539,23358,19262,-2644,-30,29,3,-0.986870,2.255760,1.672974
24925165,23340,19220,-2716,-49,30,-4,-0.986477,2.255880,1.672704
24940791,23404,19172,-2694,-56,26,-6,-0.985664,2.256200,1.672082
24956418,23408,19096,-2718,-44,21,-2,-0.985360,2.256266,1.671655
24972052,23404,19082,-2688,-21,21,1,-0.985077,2.256334,1.671435
24987679,23426,19112,-2768,7,20,6,3.141593,-3.141593,1.771037
25003304,23368,19156,-2696,17,20,4,3.141593,-3.141593,1.771037
25018930,23360,19234,-2782,17,20,7,-0.986455,2.256218,1.672795
25034557,23400,19362,-2792,9,18,7,-0.987095,2.256300,1.673726
25050184,23422,19426,-2816,-7,11,5,-0.988082,2.256340,1.674640
25065809,23546,19434,-2810,-28,13,5,-0.988221,2.256468,1.674943
25081435,23538,19410,-2784,-50,32,3,-0.988106,2.256601,1.675018
25097062,23472,19338,-2782,-73,44,6,-0.987805,2.256667,1.674591
25112688,23286,19132,-2736,-74,45,1,-0.986343,2.256610,1.673041
25128315,23318,19048,-2722,-48,41,1,-0.984996,2.256681,1.671588
25143941,23362,19104,-2760,-16,38,5,-0.984688,2.256730,1.671249
25159568,23448,19168,-2704,20,37,7,-0.984629,2.256740,1.671312
25175194,23436,19232,-2754,43,47,6,-0.984965,2.256629,1.671645
25190821,23384,19340,-2738,10,60,1,-0.985349,2.256602,1.672400
25206447,23214,19260,-2598,-49,55,3,-0.985324,2.256584,1.672281
25222074,23212,19068,-2668,-68,29,-6,-0.983750,2.256825,1.670942
25237701,23300,19064,-2740,-57,10,-17,-0.983105,2.256969,1.670358
25253328,23424,19118,-2740,2,28,-7,-0.982826,2.257312,1.670222
25268953,23366,19250,-2810,36,50,-3,-0.983106,2.257470,1.670790
25284579,23296,19370,-2850,62,55,5,-0.983216,2.257544,1.671149
25300205,23300,19436,-2860,55,44,11,-0.984222,2.257632,1.672454
25315831,23336,19428,-2820,13,36,5,-0.984633,2.257657,1.673152
25331458,23464,19364,-2854,-6,41,-3,-0.984853,2.257858,1.673608
25347084,23470,19380,-2844,-1,58,0,-0.984796,2.257885,1.673583
25362711,23484,19456,-2756,2,84,-1,-0.983977,2.258056,1.673189
25378338,23386,19596,-2900,-22,113,-8,-0.982382,2.258149,1.671873
25393965,23306,19514,-2820,-90,115,-11,-0.980791,2.258340,1.670595
25409591,23308,19212,-2764,-125,103,-16,-0.976948,2.258727,1.667028
25425218,23242,19108,-2752,-115,93,-24,-0.974855,2.258987,1.665037
25440844,23310,18988,-2852,-94,90,-25,-0.971326,2.259381,1.661756
25456471,23244,19074,-2848,-56,99,-22,-0.969840,2.259542,1.660443
25472097,23078,19114,-2718,-29,100,-17,-0.967580,2.259874,1.658472
25487723,22898,19072,-2588,-32,77,-14,-0.966524,2.260076,1.657770
25503349,22996,19026,-2794,-64,40,-19,-0.964765,2.260455,1.656467
25518976,23098,19100,-2764,-41,27,-8,-0.963970,2.260993,1.655938
25534603,23158,19054,-2784,-7,24,0,-0.963884,2.261081,1.655921
25550229,23060,19050,-2754,9,20,-1,-0.964928,2.261067,1.656942
25565855,23144,19024,-2872,32,16,5,-0.965631,2.261132,1.657809
25581481,23212,19120,-2874,42,27,0,-0.967409,2.261107,1.659777
25597107,23094,19222,-2810,36,26,-2,-0.968141,2.261112,1.660637
25612732,23020,19258,-2680,41,13,1,-0.969684,2.261292,1.662548
25628358,23028,19320,-2614,77,0,-5,-0.971553,2.261635,1.664876
25643985,23216,19230,-2810,71,-1,-10,-0.972663,2.261759,1.666264
25659612,23238,19212,-2784,58,9,-15,-0.974846,2.262267,1.669007
25675238,23300,19172,-2912,76,23,-16,-0.975640,2.262426,1.670144
25690864,23302,19286,-3002,90,37,-20,-0.977358,2.262809,1.672509
25706490,23148,19402,-3070,82,50,-11,-0.978082,2.262977,1.673710
25722115,23030,19500,-3064,82,45,-4,-0.979110,2.263435,1.675639
25737741,23032,19482,-3112,93,27,0,-0.980071,2.263614,1.676977
25753367,23072,19390,-3082,63,21,-4,-0.981982,2.263990,1.679565
25768994,23164,19308,-2954,59,25,-15,-0.983452,2.264354,1.681723
25784621,23168,19292,-2984,69,32,-20,-0.983858,2.264590,1.682497
25800247,23082,19240,-3114,67,36,-14,-0.984813,2.265127,1.684341
25815873,23040,19228,-3082,76,27,-6,-0.985344,2.265231,1.685243
25831500,23032,19356,-3128,96,12,-4,-0.987038,2.265526,1.687619
25847126,23068,19484,-3222,109,5,-4,-0.988169,2.265762,1.689184
25862752,23164,19670,-3308,111,8,-2,-0.990782,2.266097,1.692666
25878379,23254,19804,-3022,104,22,-5,-0.993175,2.266591,1.695995
25894006,23238,19830,-3244,29,40,-26,-0.993687,2.266892,1.697060
25909631,23192,19818,-3420,-43,75,-32,-0.992807,2.267799,1.697152
25925258,23024,19784,-3506,-72,96,-9,-0.991382,2.268172,1.696190
25940885,22958,19622,-3416,-63,80,7,-0.988676,2.268582,1.693767
25956511,22974,19528,-3464,-63,68,0,-0.987803,2.268696,1.692937
25972137,22996,19478,-3326,-60,75,-7,-0.986219,2.269026,1.691398
25987763,22998,19366,-3276,-38,81,5,-0.985103,2.269129,1.690430
26003389,22950,19266,-3238,-24,77,12,-0.983868,2.269024,1.689249
26019015,22978,19104,-3224,-22,64,5,-0.983045,2.268773,1.688155
26034642,22972,19220,-3274,36,56,10,-0.982822,2.268699,1.688013
26050268,23038,19464,-3184,110,59,17,-0.983770,2.268508,1.689081
26065894,22978,19648,-3170,130,62,19,-0.984595,2.268431,1.690309
26081519,22950,19684,-3200,78,52,19,-0.986276,2.268270,1.692500
26097146,23044,19590,-3404,33,33,16,-0.986638,2.268225,1.693190
26112771,23070,19514,-3510,9,25,5,-0.987652,2.268286,1.694564
26128397,23110,19436,-3412,9,30,2,-0.988316,2.268506,1.695498
26144024,22958,19402,-3176,10,38,2,-0.988453,2.268569,1.695792
26159650,22886,19474,-3220,30,31,15,-0.988741,2.268631,1.696376
26175275,22920,19464,-3284,67,30,19,-0.989420,2.268610,1.697053
26190901,22922,19510,-3432,75,12,14,-0.990921,2.268531,1.699070
26206527,23060,19364,-3482,34,-21,3,-0.991992,2.268586,1.700378
26222153,23122,19382,-3414,26,-35,-5,-0.994027,2.268916,1.702981
26237780,23186,19460,-3602,81,-13,0,-0.995333,2.269069,1.704344
26253406,23172,19650,-3550,117,21,12,-0.997764,2.269269,1.707654
26269032,23000,19914,-3458,134,23,30,-1.000459,2.269242,1.711004
26284658,23134,19928,-3560,139,16,27,-1.001694,2.269191,1.712708
26300285,23192,19910,-3732,102,20,0,-1.004226,2.269281,1.716216
26315911,23122,19758,-3740,-27,25,-30,-1.004901,2.269591,1.717416
26331538,23106,19538,-3746,-112,32,-25,-1.003738,2.270562,1.716924
26347165,23016,19418,-3686,-68,41,9,-1.002767,2.270936,1.715971
26362792,22962,19582,-3632,64,55,28,-1.002216,2.270820,1.715225
26378418,22862,19870,-3544,125,56,20,-1.003641,2.270546,1.717234
26394051,22848,19852,-3408,38,22,1,-1.003940,2.270694,1.718088
26409678,23044,19666,-3746,-26,-8,-6,-1.004195,2.271232,1.718913
26425305,23156,19538,-3998,-38,-4,2,-1.004141,2.271586,1.719256
26440932,23220,19504,-3908,17,33,4,-1.005005,2.271778,1.720075
26456559,23102,19710,-3734,92,76,5,-1.005318,2.271815,1.720679
26472185,22842,19824,-3574,87,82,7,-1.005737,2.271762,1.721819
26487811,22756,19826,-3720,42,50,5,-1.005552,2.271899,1.722111
26503438,22872,19732,-3918,8,10,2,-1.005545,2.272338,1.722882
26519065,23164,19674,-3850,13,-14,-10,-1.005936,2.272633,1.723585
26534691,23332,19726,-3874,24,6,-17,-1.006997,2.273195,1.725238
26550317,23316,19848,-3774,61,60,-10,-1.007473,2.273730,1.726481
26565942,23148,20040,-3878,101,99,8,-1.007653,2.273766,1.726954
26581568,22914,20112,-3828,47,101,16,-1.007333,2.273881,1.727560
26597195,22758,20124,-3960,-1,79,6,-1.006608,2.273900,1.727111
26612820,22770,19956,-3926,-45,45,-10,-1.005172,2.274420,1.726293
26628445,22894,19742,-3948,-79,17,-4,-1.004080,2.275170,1.725466
26644071,23082,19606,-4014,-87,21,-1,-1.003590,2.275340,1.724997
26659697,23096,19592,-3874,-16,53,0,-1.002790,2.275602,1.724087
26675323,22948,19774,-3866,64,57,12,-1.002648,2.275649,1.724046
26690949,22876,19756,-3910,57,40,18,-1.003326,2.275498,1.725270
26706576,22852,19612,-3970,37,25,17,-1.003877,2.275501,1.725924
26722203,22938,19670,-3894,53,29,-1,-1.004979,2.275555,1.727515
26737829,22960,19750,-4058,48,33,-12,-1.005409,2.275674,1.728322
26753455,22980,19776,-4170,24,37,-7,-1.005699,2.276232,1.729610
26769080,22888,19910,-4104,37,41,8,-1.005799,2.276490,1.730064
26784706,22872,19990,-3952,103,52,21,-1.006486,2.276640,1.731280
26800332,22852,20118,-3780,104,69,-8,-1.007632,2.276731,1.733409
26815958,22782,20226,-3648,46,60,-22,-1.007432,2.277079,1.733781
26831584,22834,20086,-3724,-31,23,-18,-1.006063,2.278097,1.733673
26847210,22892,19846,-3846,-75,-7,-13,-1.005289,2.278688,1.733285
26862836,22920,19694,-3840,-54,-17,-7,-1.004483,2.279328,1.732627
26878461,22944,19860,-4168,26,-22,14,-1.004844,2.279558,1.732968
26894087,23004,20008,-4198,82,-25,30,-1.006880,2.279742,1.735490
26909714,23128,20266,-4600,122,-17,47,-1.010401,2.279579,1.739721
26925340,23138,20216,-4496,53,10,36,-1.012444,2.279391,1.741996
26940967,23106,20056,-4144,-30,35,2,-1.014116,2.279369,1.744091
26956592,22920,20018,-3990,-39,45,-2,-1.013428,2.279606,1.743559
26972219,22784,19934,-4014,2,31,29,-1.012417,2.279913,1.742675
26987846,22812,19882,-4228,18,2,47,-1.013395,2.279517,1.743646
27003472,23056,19858,-4350,-20,7,27,-1.014238,2.279384,1.744296
27019098,23162,19844,-4240,-42,51,-16,-1.014561,2.279314,1.744648
27034725,23040,19878,-4254,-58,89,-32,-1.012836,2.279837,1.743317
27050352,22874,19742,-4252,-96,89,-34,-1.010018,2.280560,1.740731
27065979,22808,19660,-4250,-92,90,-42,-1.008237,2.280982,1.739222
27081605,22788,19738,-4204,-48,89,-45,-1.005046,2.281877,1.736464
27097230,22750,19888,-4140,18,76,-31,-1.003742,2.282412,1.735504
27112855,22792,20022,-4176,52,61,-6,-1.002678,2.283090,1.735398
27128482,22862,19956,-4202,3,65,-20,-1.002541,2.283267,1.735716
27144109,22860,19888,-4052,-57,77,-45,-1.001032,2.284070,1.735057
27159736,22736,20042,-3968,18,74,-30,-0.999604,2.284592,1.733899
27175363,22712,20214,-4082,57,40,1,-0.997750,2.285450,1.732983
27190989,22792,20140,-4144,8,14,11,-0.998177,2.285844,1.734222
27206616,22788,20162,-4162,-17,-4,20,-0.998412,2.286055,1.734713
27222241,22942,20142,-4366,-2,-11,32,-0.999559,2.286108,1.735865
27237868,22988,20102,-4344,-7,-6,35,-1.000332,2.286044,1.736763
27253495,22966,19890,-4254,-39,22,24,-1.001815,2.285762,1.738101
27269121,22888,19850,-4138,-54,46,-9,-1.001935,2.285714,1.737949
27284747,22748,19836,-4188,-49,38,-12,-1.000800,2.286011,1.736870
27300374,22844,19680,-4316,-39,22,4,-0.999971,2.286429,1.736303
27316001,22784,19766,-4168,28,26,8,-0.999995,2.286450,1.736217
27331627,22788,19958,-4188,97,27,27,-1.001118,2.286412,1.737816
27347254,22716,19990,-4194,49,34,14,-1.002204,2.286222,1.739146
27362880,22768,19910,-4326,-31,35,-10,-1.002855,2.286436,1.740356
27378505,22830,19750,-4354,-84,42,-34,-1.002442,2.286645,1.740072
27394132,22844,19772,-4266,-54,53,-44,-1.000568,2.287554,1.738522
27409759,22768,19898,-4226,21,55,-27,-0.999642,2.287974,1.738024
27425385,22654,20080,-4430,33,59,-5,-0.999193,2.288569,1.738428
27441011,22664,20048,-4454,-25,60,-17,-0.998814,2.289074,1.738853
27456637,22728,19968,-4376,-81,65,-39,-0.998277,2.289349,1.738447
27472264,22844,19938,-4122,-74,77,-48,-0.995468,2.290398,1.736334
27487891,22732,19892,-4216,-30,82,-32,-0.994119,2.290832,1.735206
27503517,22566,19872,-4134,-24,80,-26,-0.992112,2.291525,1.733831
27519143,22532,19942,-4154,-33,63,-26,-0.991374,2.291742,1.733208
27534769,22610,20066,-4160,-7,28,-18,-0.989890,2.292421,1.732401
27550395,22666,20578,-4034,109,-19,41,-0.990877,2.292840,1.734029
27566022,22748,20656,-4214,122,-59,118,-0.992610,2.292713,1.736119
27581648,22926,20268,-4360,-14,-70,106,-0.998212,2.291270,1.741199
27597275,23102,19908,-4430,-141,-35,30,-1.000019,2.290591,1.742356
27612901,23060,19688,-4360,-157,22,-11,-1.000077,2.290348,1.741303
27628527,22972,19728,-4206,-88,45,-7,-0.999048,2.290495,1.740081
27644154,22732,19828,-4154,-6,35,22,-0.998197,2.290369,1.738733
27659781,22664,19868,-4106,5,11,30,-0.998682,2.290070,1.739036
27675408,22708,19882,-4246,-19,-18,18,-0.999815,2.289841,1.740108
27691035,22786,19870,-4380,-10,-13,15,-1.001083,2.289830,1.741377
27706661,22830,19784,-4476,-2,10,5,-1.001899,2.289743,1.742101
27722287,22854,19780,-4442,-9,33,-10,-1.002554,2.289946,1.743223
27737913,22718,19936,-4266,10,43,-14,-1.002605,2.290051,1.743407
27753539,22702,20062,-4296,33,37,-6,-1.002368,2.290510,1.743866
27769165,22694,20086,-4326,22,32,2,-1.002518,2.290677,1.744338
27784792,22680,20134,-4224,2,26,7,-1.002717,2.290949,1.744993
27800418,22704,20092,-4308,-29,14,12,-1.002746,2.291101,1.745260
27816052,22764,20028,-4420,-47,6,7,-1.002877,2.291252,1.745458
27831678,22894,19974,-4434,-53,17,3,-1.003136,2.291424,1.745501
27847305,22894,19940,-4332,-40,40,-4,-1.002920,2.291478,1.745361
27862931,22808,19888,-4170,-16,55,-6,-1.002354,2.291600,1.744689
27878558,22618,19950,-4156,-9,44,5,-1.002006,2.291650,1.744430
27894184,22596,19990,-4248,-5,20,12,-1.001634,2.291680,1.744258
27909811,22660,20094,-4442,4,2,16,-1.001809,2.291720,1.744564
27925438,22910,20102,-4570,-15,3,16,-1.002847,2.291778,1.745776
27941064,22984,20034,-4408,-48,26,0,-1.003765,2.291822,1.746782
27956690,22832,19962,-4350,-58,54,-12,-1.003450,2.291962,1.746433
27972316,22670,19952,-4182,-51,59,-2,-1.002222,2.292126,1.745075
27987942,22598,19842,-4206,-43,39,4,-1.001484,2.292191,1.744370
28003568,22614,19922,-4280,-6,17,2,-1.000967,2.292270,1.743803
28019194,22700,20058,-4366,37,1,17,-1.001047,2.292379,1.744174
28034820,22820,20024,-4432,18,0,19,-1.002721,2.292374,1.746158
28050446,22884,19954,-4398,-26,20,-2,-1.003312,2.292421,1.746822
28066072,22720,19902,-4376,-42,46,-14,-1.003172,2.292601,1.746779
28081699,22628,19910,-4340,-26,45,-8,-1.002273,2.293041,1.746194
28097324,22608,19968,-4310,-2,34,-2,-1.001906,2.293138,1.746019
28112950,22656,20126,-4262,28,25,7,-1.002004,2.293348,1.746386
28128577,22670,20296,-4288,32,13,22,-1.002297,2.293403,1.746896
28144202,22700,20232,-4386,1,9,20,-1.003298,2.293373,1.748197
28159827,22760,19990,-4450,-54,10,6,-1.003692,2.293427,1.748638
28175454,22918,19850,-4522,-81,17,-2,-1.003539,2.293592,1.748320
28191081,22910,19870,-4442,-57,33,-9,-1.002718,2.293731,1.747321
28206708,22778,19920,-4446,-25,45,-1,-1.002523,2.293738,1.747099
28222335,22584,20026,-4356,-2,47,7,-1.002176,2.293788,1.746841
28237961,22488,20158,-4272,25,29,14,-1.002294,2.293803,1.747046
28253587,22644,20086,-4340,4,12,14,-1.002685,2.293920,1.747844
28269213,22828,19930,-4370,-32,8,4,-1.003030,2.294018,1.748181
28284840,22872,19866,-4506,-36,24,-5,-1.003237,2.294147,1.748395
28300467,22810,20012,-4482,-18,43,-2,-1.003017,2.294133,1.748259
28316093,22632,20190,-4388,22,41,27,-1.002864,2.294177,1.748224
28331718,22534,20168,-4296,-1,23,27,-1.003434,2.293871,1.748821
28347343,22694,20074,-4298,-49,11,6,-1.003608,2.293912,1.749126
28362968,22744,19934,-4394,-73,11,-2,-1.003379,2.294098,1.748791
28378594,22788,19814,-4444,-69,15,0,-1.003168,2.294238,1.748373
28394220,22786,19840,-4476,-40,22,-2,-1.002862,2.294298,1.747941
28409847,22790,19978,-4326,-3,35,5,-1.002792,2.294388,1.747919
28425473,22708,20158,-4288,29,32,24,-1.003271,2.294237,1.748304
28441099,22780,20174,-4394,4,9,29,-1.004287,2.293944,1.749447
28456726,22842,20072,-4408,-41,11,7,-1.004580,2.293852,1.749878
28472352,22826,19968,-4454,-66,31,-10,-1.004545,2.294032,1.749765
28487977,22662,19950,-4468,-69,45,-4,-1.004037,2.294178,1.749193
28503602,22638,19986,-4390,-54,38,2,-1.002889,2.294319,1.747855
28519228,22644,20038,-4296,-39,24,0,-1.002574,2.294459,1.747506
28534854,22672,19998,-4308,-25,18,7,-1.002239,2.294646,1.747240
28550479,22752,20050,-4228,2,24,5,-1.002289,2.294603,1.747344
28566104,22736,20196,-4356,34,46,-5,-1.002436,2.294770,1.747815
28581730,22634,20338,-4418,34,55,-6,-1.002477,2.295085,1.748434
28597357,22588,20346,-4424,-19,51,-15,-1.002255,2.295350,1.748730
28612984,22552,20124,-4476,-121,39,-21,-1.000820,2.296062,1.747742
28628610,22656,19830,-4458,-177,29,-31,-0.999441,2.296521,1.746423
28644237,22708,19634,-4380,-152,25,-29,-0.996929,2.297151,1.743322
28659863,22722,19568,-4316,-80,23,-12,-0.995802,2.297365,1.742169
28675489,22786,19738,-4354,7,20,6,-0.995479,2.297443,1.741464
28691115,22774,19922,-4206,72,19,13,-0.996047,2.297252,1.742137
28706741,22704,20020,-4262,68,14,14,-0.997771,2.297000,1.744230
28722368,22778,20008,-4412,24,10,11,-0.999559,2.296726,1.746340
28737995,22810,20056,-4386,-18,9,4,-1.000151,2.296773,1.747002
28753621,22800,20108,-4498,-34,14,-5,-1.000527,2.296875,1.747523
28769247,22854,20066,-4486,-32,26,-3,-1.000658,2.297027,1.747719
28784873,22726,20116,-4404,-36,40,-5,-1.000316,2.297145,1.747458
28800500,22594,20026,-4286,-48,49,1,-0.999975,2.297264,1.747196
28816126,22516,19950,-4424,-52,43,6,-0.999086,2.297309,1.746106
28831751,22508,19924,-4402,-50,25,5,-0.998695,2.297323,1.745661
28847378,22546,19950,-4330,-24,20,11,-0.998524,2.297350,1.745353
28863005,22616,20132,-4348,14,25,15,-0.998771,2.297301,1.745678
28878631,22644,20262,-4286,26,35,14,-0.999162,2.297287,1.746122
28894257,22548,20224,-4364,-26,35,10,-0.999452,2.297274,1.746637
28909883,22600,20022,-4440,-86,27,5,-0.999160,2.297350,1.746479
28925510,22626,19858,-4364,-102,20,-8,-0.998182,2.297469,1.745092
28941136,22750,19824,-4472,-90,21,-17,-0.997769,2.297615,1.744452
28956762,22830,19804,-4330,-69,26,-18,-0.996722,2.298023,1.743391
28972388,22778,19848,-4270,-37,30,-9,-0.995987,2.298224,1.742682
28988015,22694,19894,-4280,3,32,8,-0.996032,2.298198,1.742513
29003641,22602,19906,-4372,27,26,10,-0.996524,2.298030,1.743169
29019268,22638,19946,-4358,32,20,0,-0.997167,2.297967,1.743938
29034895,22640,19970,-4348,24,23,-5,-0.998231,2.298042,1.745417
29050521,22638,20102,-4340,16,23,1,-0.998457,2.298187,1.745904
29066147,22650,20206,-4366,-9,20,4,-0.998852,2.298305,1.746700
29081773,22660,20132,-4358,-33,28,-1,1.134021,-0.589608,0.645204
29097399,22670,20064,-4292,-40,32,3,-0.998715,2.298701,1.746731
29113025,22556,19916,-4328,-49,27,13,-0.998323,2.298715,1.746287
29128651,22530,19798,-4332,-41,17,15,-0.998223,2.298653,1.746000
29144277,22592,19828,-4480,-28,16,5,-0.998593,2.298407,1.746094
29159902,22556,19918,-4430,-7,27,-3,-0.998865,2.298378,1.746333
29175528,22512,20152,-4288,19,33,9,-0.999040,2.298567,1.746716
29191155,22454,20190,-4304,20,26,34,-0.999405,2.298532,1.747247
29206782,22592,20076,-4396,-26,11,19,-1.000329,2.298177,1.748100
29222408,22758,20018,-4370,-55,11,4,-1.000658,2.298175,1.748437
29238034,22826,19994,-4424,-67,21,5,-1.000489,2.298203,1.748128
