elbow_0
Module: E0:5A:1B:76:00:58 (06)
t(us),ax,ay,az,gx,gy,gz,y,p,r
1,23690,4766,5196,-43,21,11,-0.000152,0.007081,0.008545
15628,23794,4806,5098,-37,20,14,-0.000542,0.029057,0.012084
31253,23782,4804,5070,-31,25,13,-0.000892,0.040046,0.014035
46879,23750,4786,5038,-24,28,12,-0.001531,0.061908,0.017818
62505,23690,4820,5108,-20,22,16,-0.001827,0.072779,0.019898
78131,23720,4838,5122,-21,16,14,-0.002605,0.094531,0.023938
93757,23726,4874,5124,-21,18,12,-0.002963,0.105291,0.025905
109382,23734,4868,5068,-24,26,12,-0.003877,0.126933,0.029966
125008,23692,4816,5066,-29,30,10,-0.004745,0.148107,0.033933
140633,23736,4820,5252,-28,24,10,-0.005200,0.158516,0.035802
156259,23756,4770,5114,-17,20,12,-0.006062,0.179463,0.039693
171884,23818,4782,5026,-8,22,14,-0.006596,0.190002,0.041707
187511,23790,4904,5090,-7,33,10,-0.007877,0.210740,0.045995
203138,23676,4902,5156,-9,36,8,-0.008487,0.220924,0.048157
218763,23760,4866,5186,-7,30,7,-0.009638,0.241072,0.052403
234388,23864,4840,5150,-6,22,4,-0.010316,0.251024,0.054594
250015,23836,4860,5092,-13,30,3,-0.011617,0.271211,0.058911
265641,23736,4852,5058,-9,34,6,-0.012838,0.290908,0.063038
281266,23638,4946,5164,-5,31,8,-0.013619,0.300664,0.065168
296892,23664,4948,5076,-23,25,8,-0.015119,0.320030,0.069481
312519,23642,4844,4982,-37,24,5,-0.015951,0.329683,0.071525
328146,23682,4762,5110,-43,25,7,-0.017329,0.348722,0.075178
343772,23712,4752,5168,-36,20,11,-0.018023,0.358131,0.076897
359398,23766,4784,5072,-15,15,13,-0.019656,0.377090,0.080615
375024,23816,4910,5042,-9,18,12,-0.020595,0.386423,0.082616
390650,23690,4954,5034,-29,32,10,-0.022462,0.405053,0.086944
406277,23620,4904,5130,-44,26,8,-0.024284,0.422968,0.090802
421903,23680,4824,5146,-38,13,8,-0.025109,0.431937,0.092509
437529,23812,4772,5040,-32,15,7,-0.026760,0.449914,0.096275
453155,23782,4724,5128,-22,25,8,-0.027677,0.458784,0.098167
468781,23746,4788,5160,-8,25,12,-0.029724,0.476168,0.102094
484408,23772,4896,5136,-8,17,11,-0.030896,0.484707,0.104270
500034,23860,4946,5066,-11,19,9,-0.033150,0.501866,0.108573
515661,23774,4884,5132,-28,34,4,-0.035324,0.518602,0.112857
531286,23710,4836,5126,-30,38,1,-0.036397,0.526779,0.114884
546913,23712,4824,5120,-19,28,3,-0.038415,0.542769,0.118884
562540,23756,4840,5026,-9,22,4,-0.039404,0.550697,0.121001
578166,23752,4856,5072,5,17,9,-0.041976,0.566744,0.125479
593792,23800,4962,5064,-1,20,10,-0.043360,0.574593,0.127724
609418,23728,4902,5092,-15,25,0,-0.045934,0.590186,0.132368
625044,23752,4958,5070,-26,28,1,-0.047201,0.597791,0.134572
640671,23668,4928,5130,-33,31,-1,-0.049420,0.612753,0.138842
656297,23664,4858,5086,-37,28,-1,-0.051614,0.627368,0.142903
671923,23668,4822,5086,-29,20,1,-0.052611,0.634642,0.145023
687549,23736,4834,5070,-13,18,3,-0.055079,0.649058,0.149176
703174,23778,4842,5116,-12,19,3,-0.056473,0.656223,0.151411
718801,23690,4928,5136,-15,23,5,-0.059107,0.670274,0.155832
734426,23734,4918,5038,-29,22,4,-0.060559,0.677202,0.158127
750053,23744,4868,5058,-42,24,2,-0.063052,0.690780,0.162424
765680,23700,4828,5132,-42,22,2,-0.064252,0.697481,0.164385
781305,23706,4872,5116,-29,20,6,-0.066484,0.710717,0.168263
796931,23722,4884,5094,-25,20,5,-0.069178,0.723611,0.172399
812556,23708,4884,5108,-33,21,3,-0.070523,0.730066,0.174617
828182,23690,4910,5158,-32,20,4,-0.073124,0.742715,0.178790
843808,23754,4832,5080,-29,18,2,-0.074436,0.748900,0.180896
859435,23786,4828,5054,-35,24,0,-0.077077,0.761201,0.185036
875062,23708,4856,5138,-24,27,6,-0.078300,0.767185,0.187277
890689,23716,4930,5146,-11,21,8,-0.081367,0.778881,0.191526
906315,23728,4892,5070,-21,16,5,-0.084529,0.790581,0.196279
921942,23832,4850,5094,-33,15,2,-0.085979,0.796295,0.198548
937569,23836,4864,5078,-26,19,2,-0.088844,0.807779,0.202869
953196,23732,4922,5122,-27,26,1,-0.090284,0.813383,0.205046
968821,23696,4900,5096,-43,27,-1,-0.093067,0.824176,0.209652
984447,23786,4778,5098,-49,23,-1,-0.094300,0.829434,0.211775
1000076,23748,4812,5142,-39,16,3,-0.096666,0.840027,0.215766
1015703,23788,4796,5068,-17,17,7,-0.098092,0.845243,0.217874
1031330,23778,4878,5100,-18,24,3,-0.101330,0.855489,0.222419
1046957,23712,4854,5038,-26,29,3,-0.104636,0.865505,0.227038
1062583,23658,4836,5084,-32,26,3,-0.104636,0.865505,0.227038
1078208,23654,4840,5150,-35,22,3,-0.108951,0.879831,0.233707
1093835,23700,4832,5122,-31,18,5,-0.110246,0.884584,0.235867
1109462,23772,4812,5066,-34,15,7,-0.113284,0.894049,0.240256
1125088,23794,4814,5066,-34,22,3,-0.114800,0.898701,0.242396
1140715,23744,4846,5146,-31,29,1,-0.117604,0.907660,0.246745
1156341,23676,4828,5096,-26,27,3,-0.120674,0.916343,0.251220
1171967,23748,4842,5082,-20,16,5,-0.122204,0.920606,0.253399
1187593,23836,4888,5148,-5,12,8,-0.125518,0.929204,0.258219
1203219,23792,4962,5148,-7,18,7,-0.127534,0.933608,0.260805
1218846,23792,4968,5116,-26,27,3,-0.131166,0.941816,0.265785
1234471,23704,4864,4990,-49,35,1,-0.132750,0.945794,0.268049
1250097,23676,4746,5102,-57,31,0,-0.135065,0.953465,0.272298
1265723,23732,4706,5206,-44,17,3,-0.136174,0.957303,0.274119
1281350,23776,4754,5190,-19,16,6,-0.138932,0.965174,0.278203
1296976,23856,4742,5062,-7,28,3,-0.142432,0.972742,0.282853
1312602,23732,4864,5056,-8,34,5,-0.144254,0.976346,0.285107
1328228,23680,4838,5092,-12,28,5,-0.147950,0.983387,0.290138
1343854,23734,4862,5126,-16,15,3,-0.149840,0.986983,0.292467
1359481,23804,4898,5130,-20,20,3,-0.153343,0.994076,0.297414
1375108,23676,4880,5098,-22,30,7,-0.155027,0.997482,0.299855
1390734,23676,4888,5096,-26,28,7,-0.158252,1.004062,0.304366
1406361,23772,4854,5044,-50,15,9,-0.161189,1.010573,0.308845
1421988,23856,4740,5086,-44,19,5,-0.162438,1.013894,0.310898
1437615,23850,4710,5124,-30,30,2,-0.165159,1.020446,0.314930
1453241,23764,4818,5136,-23,30,1,-0.166518,1.023533,0.317181
1468867,23720,4786,5076,-25,25,4,-0.169748,1.029487,0.321810
1484493,23776,4858,5158,-18,16,7,-0.171341,1.032486,0.323984
1500119,23802,4840,5066,-20,21,1,-0.174959,1.038505,0.328688
1515744,23782,4818,5068,-27,29,2,-0.176442,1.041396,0.331205
1531371,23702,4808,5136,-30,28,2,-0.179528,1.046993,0.335546
1546997,23760,4762,5110,-24,25,1,-0.182449,1.052454,0.340051
1562622,23748,4850,5114,-17,24,7,-0.183987,1.055113,0.342232
1578248,23726,4848,5080,-17,28,8,-0.187310,1.060460,0.346917
1593875,23748,4860,5124,-23,25,6,-0.189086,1.063035,0.348999
1609501,23784,4840,5134,-24,22,5,-0.192291,1.068230,0.353512
1625128,23764,4858,5098,-34,27,1,-0.193907,1.070773,0.355779
1640754,23754,4792,5114,-45,34,0,-0.196438,1.075604,0.360258
1656380,23724,4708,5088,-39,31,1,-0.197287,1.077873,0.362261
1672006,23694,4750,5194,-25,24,5,-0.199595,1.082535,0.366337
1687633,23732,4788,5130,-15,22,4,-0.202834,1.087120,0.370491
1703260,23740,4830,5058,-13,21,4,-0.204455,1.089485,0.372820
1718887,23808,4854,5148,-10,20,6,-0.207916,1.094034,0.377308
1734513,23842,4902,5122,-16,22,9,-0.209688,1.096267,0.379867
1750140,23814,4816,5176,-24,29,9,-0.212998,1.100668,0.384144
1765766,23778,4784,5108,-17,34,10,-0.214410,1.102684,0.386153
1781392,23696,4802,5226,-6,26,17,-0.217882,1.106842,0.390233
1797018,23766,4766,5036,5,22,14,-0.221644,1.110837,0.394349
1812644,23848,4852,5082,13,27,11,-0.223954,1.112910,0.396684
1828269,23766,4928,5144,10,35,6,-0.228555,1.116904,0.401506
1843895,23708,4874,5038,-9,41,-1,-0.230654,1.118654,0.403645
1859521,23582,4820,5160,-11,36,-1,-0.233977,1.122031,0.408523
1875147,23668,4804,5084,-12,23,0,-0.235410,1.123683,0.410692
1890773,23728,4886,5098,-16,28,-4,-0.238708,1.127357,0.415411
1906399,23700,4920,5096,-13,40,1,-0.240154,1.129090,0.417469
1922025,23606,4930,5176,-17,35,3,-0.243069,1.132179,0.421821
1937652,23632,4970,5114,-14,26,6,-0.246149,1.135321,0.426303
1953278,23718,4926,5132,-9,15,8,-0.247675,1.136956,0.428599
1968905,23798,4950,5062,-17,17,4,-0.251106,1.140401,0.433010
1984532,23762,4906,5094,-37,33,0,-0.252622,1.142022,0.435127
2000159,23674,4860,5096,-45,42,-1,-0.254274,1.144944,0.439078
2015786,23488,4806,4988,-48,30,-1,-0.255152,1.146339,0.440927
2031413,23538,4692,4982,-43,14,-1,-0.256522,1.149213,0.444416
2047039,23654,4780,5018,-15,-6,3,-0.258538,1.152620,0.448261
2062665,23896,4910,5104,-13,-8,1,-0.260297,1.154385,0.450655
2078291,23928,5086,5198,-28,6,1,-0.263777,1.157851,0.455655
2093918,23888,5162,5176,-44,22,2,-0.264854,1.159293,0.457701
2109545,23746,5042,5140,-63,20,2,-0.266081,1.161920,0.461655
2125172,23778,4860,5110,-71,6,7,-0.266378,1.163352,0.463569
2140798,23862,4786,5074,-66,9,7,-0.266816,1.166343,0.466797
2156425,23784,4738,5050,-56,29,3,-0.267076,1.167776,0.468270
2172050,23492,4722,5126,-54,33,-4,-0.267776,1.170294,0.471005
2187675,23528,4650,5178,-48,12,-1,-0.268180,1.172492,0.473925
2203301,23680,4644,5166,-46,6,-1,-0.268432,1.173731,0.475524
2218928,23784,4688,5160,-28,15,-1,-0.269743,1.176398,0.478622
2234555,23856,4758,5138,-2,20,2,-0.270726,1.177663,0.480681
2250182,23858,4806,5056,-4,26,-1,-0.273859,1.180016,0.484427
2265808,23740,4818,5118,-5,32,0,-0.275527,1.181127,0.486517
2281435,23646,4894,5108,-2,25,7,-0.278404,1.183154,0.490464
2297060,23632,4974,5080,-15,14,11,1.519897,-0.289913,-0.084460
2312685,23726,4976,4978,-32,7,12,-0.282727,1.186536,0.496033
2328311,23702,4942,5124,-59,3,7,-0.284334,1.188952,0.499692
2343938,23782,4764,5124,-81,6,0,-0.284456,1.190114,0.501106
2359564,23776,4644,5138,-72,10,0,-0.283567,1.192393,0.503951
2375190,23776,4580,5122,-56,12,-2,-0.283484,1.193494,0.505048
2390816,23804,4596,5232,-36,6,0,-0.283527,1.195655,0.507766
2406443,23906,4588,5174,-14,0,4,-0.284354,1.196850,0.509160
2422077,23978,4732,5180,18,14,4,-0.287109,1.199102,0.512833
2437704,23828,4916,5144,29,25,3,-0.291277,1.201051,0.516492
2453330,23600,4982,5046,21,22,9,-0.293485,1.201857,0.518825
2468956,23696,4976,5180,6,11,9,-0.297579,1.203634,0.522859
2484582,23866,4952,5106,-22,8,11,-0.299368,1.204530,0.524984
2500209,23928,4832,5102,-37,30,6,-0.300763,1.206302,0.528010
2515834,23756,4764,5084,-25,40,4,-0.301219,1.207091,0.528979
2531461,23790,4770,5200,-18,28,6,-0.302630,1.208465,0.531601
2547088,23820,4760,5194,-14,18,4,-0.303269,1.209216,0.532843
2562715,23848,4700,5088,1,27,1,-0.305365,1.210739,0.535800
2578342,23774,4702,4984,17,30,1,-0.308390,1.212265,0.538957
2593969,23662,4834,4998,28,23,5,-0.310284,1.212947,0.540668
2609595,23734,4926,5130,29,8,6,-0.314838,1.214547,0.544781
2625221,23850,5048,5124,16,2,5,-0.317008,1.215370,0.546991
2640848,23868,5124,5032,-6,16,10,-0.320426,1.216917,0.551152
2656474,23758,5190,5122,-36,29,9,-0.321771,1.217721,0.552667
2672100,23698,4952,5148,-67,24,10,-0.322034,1.218750,0.555371
2687727,23784,4768,5040,-74,17,6,-0.320724,1.220107,0.557096
2703353,23866,4630,5050,-62,18,3,-0.319808,1.220690,0.557937
2718979,23826,4640,5106,-35,22,6,-0.319233,1.222187,0.559458
2734605,23794,4748,5122,-7,20,8,-0.319527,1.222814,0.560310
2750231,23792,4842,5242,3,9,10,-0.321952,1.224282,0.562645
2765857,23852,4864,5096,-2,7,9,-0.323288,1.224890,0.564246
2781482,23932,4920,5052,-8,17,4,-0.325841,1.226333,0.567176
2797109,23816,4926,5096,-11,25,3,-0.326943,1.226986,0.569090
2812736,23764,4920,5122,-20,27,6,-0.328728,1.227996,0.571625
2828363,23760,4902,5090,-26,26,7,-0.329646,1.228882,0.573835
2843990,23790,4850,5194,-28,21,8,-0.329638,1.229372,0.574787
2859617,23796,4878,5214,-25,16,12,-0.330594,1.230456,0.576738
2875243,23832,4872,5076,-22,20,10,-0.331105,1.231037,0.577909
2890869,23890,4844,5094,-25,26,3,-0.332057,1.232018,0.580018
2906496,23840,4828,5042,-26,25,1,-0.332244,1.232465,0.581257
2922122,23798,4772,5114,-19,18,3,-0.333014,1.233485,0.583118
2937748,23850,4732,5140,-5,12,2,-0.334172,1.234421,0.585527
2953375,23854,4866,5080,5,15,4,-0.335392,1.235059,0.586947
2969002,23850,4970,5026,5,19,7,-0.337538,1.235995,0.589552
2984627,23838,5066,5114,2,21,7,-0.339219,1.236545,0.590946
3000254,23788,5006,5132,-15,20,5,-0.341070,1.237333,0.593888
3015880,23848,4902,5030,-24,16,7,-0.341728,1.237689,0.595124
3031507,23854,4852,5060,-21,21,5,-0.342253,1.238655,0.597240
3047133,23804,4904,5082,-16,22,7,-0.342762,1.239139,0.598346
3062758,23768,5002,5138,-19,22,6,-0.344020,1.239960,0.600389
3078385,23782,4962,5046,-43,25,2,-0.344198,1.240500,0.602136
3094011,23798,4876,5112,-51,23,1,-0.343883,1.240849,0.603219
3109637,23866,4774,5272,-37,17,8,-0.342716,1.241556,0.604396
3125263,23970,4792,5126,-16,18,5,-0.342580,1.241976,0.604713
3140889,23900,4866,5018,-1,28,5,-0.343436,1.242777,0.606382
3156515,23766,4952,5058,1,30,6,-0.345333,1.243377,0.608559
3172141,23746,5022,5146,-11,23,6,-0.346292,1.243669,0.609782
3187767,23814,5062,5128,-29,20,6,-0.346516,1.243915,0.610515
3203393,23834,5024,5116,-37,27,6,-0.346666,1.244549,0.612763
3219020,23730,4924,5112,-50,27,5,-0.345929,1.245064,0.614059
3234646,23866,4796,5064,-56,21,5,-0.344924,1.245247,0.614483
3250271,23882,4728,5054,-46,24,4,-0.343536,1.245991,0.615436
3265897,23888,4732,5144,-27,26,4,-0.343052,1.246278,0.615821
3281523,23854,4816,5152,-12,24,6,-0.342910,1.246882,0.616764
3297149,23852,4890,5174,3,19,8,-0.344213,1.247504,0.618301
3312775,23776,4922,5044,-14,26,5,-0.344989,1.247836,0.619277
3328401,23826,4904,5064,-25,28,5,-0.345954,1.248325,0.620868
3344028,23810,4962,5082,-18,23,7,-0.345445,1.248508,0.621390
3359654,23896,5032,5172,-12,13,11,-0.346455,1.249082,0.623128
3375284,23950,5078,5152,-30,19,9,-0.346726,1.249410,0.624026
3390911,23922,4948,5176,-66,38,4,-0.345932,1.249833,0.625224
3406537,23812,4740,5084,-73,58,2,-0.344142,1.249970,0.625163
3422164,23660,4654,5136,-52,53,11,-0.340384,1.249888,0.624074
3437791,23868,4644,5114,9,16,21,-0.339453,1.249975,0.623442
3453417,24066,4790,5030,35,6,14,-0.341288,1.250821,0.623907
3469043,24010,5000,5152,35,26,7,-0.345744,1.251736,0.626495
3484669,23796,5102,5184,20,47,7,-0.347530,1.251983,0.627524
3500296,23612,5182,5158,0,53,6,-0.349623,1.251865,0.628940
3515923,23630,5030,5102,-34,46,0,-0.349725,1.251729,0.629672
3531549,23762,4796,5002,-36,35,2,-0.347966,1.251541,0.630327
3547176,23844,4796,5008,-12,31,5,-0.347451,1.251722,0.630860
3562803,23766,4810,5108,10,30,7,-0.348478,1.252107,0.632011
3578430,23676,4952,5176,29,26,13,-0.351065,1.252498,0.633426
3594055,23632,5156,5012,13,21,9,-0.352625,1.252685,0.634312
3609681,23752,5130,4974,-39,30,5,-0.354561,1.253078,0.636584
3625308,23708,4992,5130,-68,43,3,-0.353698,1.253125,0.637164
3640934,23722,4772,5102,-55,38,6,-0.349760,1.253047,0.637006
3656560,23838,4722,5086,-19,18,11,-0.348785,1.253233,0.636855
3672186,23932,4754,5058,9,15,15,-0.349551,1.253885,0.637160
3687811,23880,4962,5114,22,29,17,-0.352585,1.254595,0.638573
3703437,23724,5088,5104,14,28,14,-0.353596,1.254694,0.639233
3719064,23814,5144,5054,-9,21,10,-0.355659,1.254977,0.640700
3734690,23828,5110,5082,-36,27,6,-0.356075,1.255085,0.641612
3750317,23692,5008,5154,-45,33,6,-0.354692,1.255309,0.642745
3765944,23672,4890,5136,-41,32,6,-0.353685,1.255390,0.642718
3781570,23678,4970,5070,-29,26,9,-0.352075,1.255480,0.642944
3797197,23706,4974,5118,-25,18,15,-0.351871,1.255706,0.643307
3812823,23788,5064,5122,-18,12,13,-0.351912,1.256169,0.644462
3828449,23848,5078,5110,-28,15,14,-0.352235,1.256773,0.645925
3844077,23850,5018,5164,-43,20,4,-0.351670,1.256866,0.646329
3859703,23820,4942,5060,-37,13,10,-0.350408,1.257266,0.647164
3875330,23774,5024,5086,-30,24,11,-0.349908,1.257547,0.647601
3890957,23746,4950,5118,-50,30,4,-0.348888,1.257807,0.648221
3906584,23742,4818,5074,-55,21,-1,-0.347525,1.257859,0.648115
3922210,23760,4802,5090,-35,16,-1,-0.345106,1.258067,0.648749
3937836,23778,4870,5222,-22,14,3,-0.344808,1.258301,0.649465
3953462,23868,5046,5248,6,11,6,-0.344230,1.258571,0.650520
3969088,23860,5116,5104,-1,21,3,-0.345943,1.258809,0.652545
3984714,23838,5040,5112,-26,32,1,-0.346484,1.258988,0.653282
4000339,23728,4958,5196,-37,38,-7,-0.345113,1.258803,0.654374
4015966,23672,4960,5178,-29,34,-6,-0.344250,1.258752,0.654473
4031592,23716,4932,5084,-20,27,-7,-0.342678,1.258594,0.655558
4047218,23746,4882,5038,-13,16,-8,-0.342270,1.258553,0.656089
4062845,23838,4904,5066,-8,12,-6,-0.342624,1.258820,0.658284
4078472,23878,4964,5148,-8,19,-3,-0.343084,1.259181,0.660024
4094099,23874,4972,5090,-6,27,-2,-0.343262,1.259225,0.660797
4109724,23846,5022,5026,-15,31,-2,-0.343660,1.259222,0.661844
4125349,23718,4948,5068,-31,30,-4,-0.343294,1.259264,0.662530
4140976,23692,4868,5164,-34,23,-2,-0.342056,1.259255,0.663315
4156602,23758,4854,5096,-15,19,5,-0.341468,1.259345,0.663729
4172227,23798,4860,5072,-11,21,3,-0.341752,1.259660,0.664704
4187854,23768,4978,5114,-13,29,6,-0.341468,1.259694,0.665045
4203481,23748,4976,5110,-19,24,8,-0.341445,1.259889,0.665437
4219106,23702,5008,5210,-19,17,11,-0.341119,1.260014,0.666282
4234733,23796,4980,5078,-22,24,11,-0.341181,1.260202,0.666328
4250358,23746,4960,5108,-20,25,14,-0.340409,1.260422,0.666629
4265984,23812,5012,5090,-19,23,16,-0.340693,1.260562,0.666948
4281611,23788,4980,5086,-31,24,16,-0.340024,1.260880,0.666791
4297237,23806,4964,5194,-28,17,14,-0.339757,1.261018,0.667023
4312864,23834,4986,5154,-27,25,13,-0.338798,1.261369,0.667211
4328491,23784,5016,5164,-27,35,13,-0.338245,1.261368,0.667123
4344116,23728,4878,5082,-25,23,9,-0.336913,1.261413,0.666676
4359742,23834,4882,5030,-11,18,11,-0.336699,1.261739,0.666956
4375367,23832,4984,5170,-1,23,11,-0.337026,1.261962,0.667435
4390993,23848,5022,5080,-4,24,9,-0.337866,1.262104,0.667844
4406620,23792,5046,5110,-8,22,12,-0.338046,1.262146,0.668626
4422246,23816,5066,5156,-12,25,11,-0.338374,1.262368,0.669106
4437873,23728,5082,5092,-23,30,8,-0.338285,1.262375,0.669457
4453500,23712,5072,5106,-29,31,9,-0.337440,1.262407,0.669715
4469125,23762,4996,5112,-26,21,7,-0.336264,1.262389,0.670159
4484751,23812,5026,5066,-34,21,5,-0.335990,1.262527,0.670395
4500378,23712,5008,5154,-33,31,3,-0.334264,1.262612,0.670643
4516004,23674,4928,5186,-22,25,3,-0.333371,1.262561,0.670743
4531631,23788,4972,5080,-16,14,6,-0.332656,1.262551,0.671625
4547258,23812,5006,4998,-13,15,10,-0.332983,1.262773,0.672109
4562885,23800,5048,5104,-18,22,5,-0.332698,1.263083,0.673019
4578511,23792,5108,5204,-29,24,2,-0.332648,1.263172,0.673530
4594138,23856,5064,5168,-37,16,4,-0.331365,1.263159,0.674328
4609763,23808,4994,5148,-39,15,5,-0.329328,1.263276,0.674925
4625388,23836,4958,5060,-50,21,2,-0.328709,1.263363,0.675351
4641015,23804,4984,4996,-48,31,4,-0.325579,1.263388,0.675262
4656640,23740,4928,5132,-39,28,3,-0.324441,1.263385,0.675088
4672265,23702,4954,5100,-28,15,3,-0.322674,1.263469,0.675340
4687892,23812,4976,5136,-24,5,3,-0.322045,1.263556,0.675766
4703518,23890,4978,5062,-28,13,2,-0.321209,1.263946,0.676759
4719145,23790,5002,5082,-32,30,2,-0.319663,1.263981,0.677285
4734772,23752,5056,5140,-33,28,2,-0.318793,1.264011,0.677546
4750399,23742,5030,5168,-37,17,1,-0.317197,1.263963,0.677910
4766025,23782,4984,5070,-38,13,2,-0.316324,1.263994,0.678171
4781652,23834,4994,5148,-37,14,3,-0.314464,1.264165,0.678942
4797278,23820,4898,5086,-40,25,-1,-0.313350,1.264245,0.678930
4812904,23802,4852,5112,-40,27,-1,-0.310970,1.264221,0.679203
4828530,23752,4912,5166,-30,19,0,-0.310039,1.264274,0.679197
4844156,23804,4920,5148,-31,14,-2,-0.308506,1.264391,0.679888
4859783,23848,4936,5150,-28,22,-4,-0.306925,1.264425,0.680417
4875408,23808,4940,5076,-33,24,-6,-0.306040,1.264454,0.680678
4891035,23804,4960,5116,-37,26,-4,-0.303835,1.264299,0.681059
4906662,23792,4954,5086,-33,20,0,-0.302904,1.264247,0.681157
4922289,23898,4906,5060,-26,18,2,-0.301112,1.264412,0.681578
4937914,23778,4962,5074,-32,26,0,-0.300795,1.264548,0.681824
4953539,23758,4992,5132,-38,33,-4,-0.298923,1.264444,0.682019
4969166,23798,5062,5200,-22,36,0,-0.297639,1.264340,0.682301
4984793,23980,5020,5336,7,77,-1,-0.296085,1.264099,0.682250
5000419,24186,5122,5484,34,151,-11,-0.295443,1.262823,0.680496
5016045,24128,5374,5562,97,229,-25,-0.295910,1.261571,0.678668
5031672,23692,5540,5280,103,268,-29,-0.298062,1.257428,0.674566
5047298,23270,5416,4724,-38,253,-36,-0.298491,1.255018,0.672499
5062924,23112,5042,4630,-181,184,-31,-0.289730,1.251050,0.666998
5078550,23282,4676,5070,-172,119,-23,-0.281607,1.249793,0.663994
5094175,23652,4724,5328,-64,126,-13,-0.269881,1.248338,0.659092
5109801,23660,4848,5072,-58,184,-3,-0.263539,1.246586,0.654491
5125428,23322,4910,4868,-80,205,5,-0.260615,1.245473,0.651305
5141055,23002,4948,4912,-94,162,13,-0.253320,1.243018,0.644703
5156681,23018,4808,5032,-121,86,14,-0.249804,1.242365,0.642028
5172307,23428,4506,5108,-119,49,5,-0.241785,1.242010,0.638251
5187934,23674,4430,5200,-93,81,-8,-0.238348,1.242040,0.637140
5203560,23574,4634,5162,-63,140,5,-0.232201,1.241556,0.633750
5219186,23316,4852,4996,-40,180,17,-0.230151,1.240862,0.630957
5234812,22870,4942,4898,-102,151,-9,-0.226203,1.238987,0.625472
5250438,22934,4722,5074,-144,87,-20,-0.218084,1.237426,0.622101
5266064,23184,4504,5020,-129,67,-20,-0.213129,1.237037,0.621270
5281690,23344,4342,5154,-93,85,-17,-0.204852,1.236770,0.618901
5297316,23246,4366,5110,-29,103,-3,-0.201959,1.236439,0.617586
5312943,23106,4652,5102,70,103,11,-0.201596,1.235921,0.615712
5328569,22966,4802,5038,79,85,13,-0.204724,1.235699,0.615818
5344195,22934,4920,5134,41,62,7,-0.210292,1.235437,0.616535
5359821,23034,4986,5136,35,52,14,-0.213945,1.235451,0.618036
5375447,23088,5032,4982,23,62,12,-0.215762,1.235511,0.618441
5391076,22984,4994,4880,-14,69,2,-0.217748,1.235520,0.619679
5406703,22954,4872,4984,-56,61,-9,-0.217610,1.235342,0.619975
5422330,22928,4700,5082,-68,52,-9,-0.214456,1.235282,0.620283
5437956,22934,4598,5018,-51,44,-8,-0.212464,1.235231,0.620194
5453582,23028,4522,5014,-27,38,-11,-0.210146,1.235407,0.620438
5469209,23024,4574,5034,12,32,-8,-0.209974,1.235692,0.620914
5484835,23044,4736,5026,44,31,4,-0.212208,1.236202,0.622738
5500461,23024,4784,5108,61,36,3,-0.216955,1.236744,0.625064
5516087,22938,4864,5026,65,36,1,-0.219652,1.236931,0.626100
5531713,22952,4874,5056,55,36,-1,-0.225457,1.237194,0.629017
5547340,22946,4886,4952,32,40,-3,-0.227661,1.237342,0.630547
5562967,22906,4924,5042,25,35,-5,-0.230858,1.237586,0.632714
5578593,22968,4958,5048,36,28,-3,-0.232076,1.237637,0.633610
5594219,23004,4964,5082,34,31,-5,-0.235944,1.237928,0.636590
5609845,23020,4950,4926,17,45,-8,1.554414,-0.293565,-0.085331
5625471,22900,4934,5032,8,51,-12,-0.239720,1.238123,0.640007
5641096,22828,4934,5062,9,39,-6,-0.240742,1.237982,0.641770
5656723,22884,4910,5030,31,25,-1,-0.241912,1.238134,0.642557
5672349,22964,4874,4998,51,17,-4,-0.245575,1.238467,0.645287
5687975,23026,4940,5030,58,23,-5,-0.247841,1.238695,0.646972
5703602,22966,5006,5046,71,29,-1,-0.253399,1.239170,0.650267
5719229,22810,5088,5090,74,24,0,-0.256467,1.239277,0.651581
5734856,22890,5118,5094,56,4,-5,-0.262488,1.239655,0.655404
5750482,22992,5074,5020,60,3,-9,-0.267650,1.240166,0.659358
5766109,23118,5118,4952,67,11,-10,-0.270575,1.240349,0.661728
5781735,23058,5088,4986,58,9,-6,-0.276313,1.240857,0.665784
5797361,22998,5048,4982,46,2,-1,-0.279026,1.241084,0.667902
5812988,22984,5002,5094,68,-4,-3,-0.283839,1.241766,0.671519
5828614,23010,5184,5098,106,-5,4,-0.287464,1.242230,0.673608
5844241,23022,5260,5118,136,2,11,-0.296790,1.242875,0.678531
5859868,23094,5404,5018,142,6,13,-0.302356,1.243205,0.680673
5875494,23066,5356,4922,112,-3,12,-0.313754,1.243686,0.685658
5891121,23022,5286,5030,109,-17,12,-0.323659,1.244511,0.690755
5906747,23098,5388,5132,134,-13,11,-0.328400,1.244972,0.693052
5922372,23062,5594,5116,144,6,9,-0.339551,1.245663,0.698454
5937998,23072,5622,5056,115,19,11,-0.345133,1.245754,0.701151
5953625,23058,5580,4970,86,15,13,-0.353442,1.245890,0.705366
5969251,23106,5512,4994,70,4,9,-0.357277,1.246022,0.707214
5984878,23230,5470,5098,67,-13,9,-0.363427,1.246548,0.711207
6000505,23268,5564,5140,91,-1,7,-0.369900,1.247123,0.715041
6016130,23250,5616,5158,102,25,5,-0.373769,1.247357,0.716805
6031756,23198,5586,4940,112,44,10,-0.381141,1.247159,0.720221
6047382,23116,5648,4964,97,41,9,-0.385047,1.246990,0.721520
6063008,23114,5720,5078,87,21,6,-0.391932,1.246893,0.724420
6078634,23184,5740,5112,108,22,2,-0.395291,1.246804,0.726125
6094261,23272,5854,5176,105,42,-7,-0.402660,1.246553,0.730123
6109887,23320,5882,5064,72,74,-10,-0.405869,1.246277,0.731753
6125514,23108,6016,4958,33,93,-11,-0.408863,1.244993,0.733275
6141140,22966,5958,5118,-3,79,-5,-0.409255,1.243513,0.733952
6156766,22998,5900,5142,1,68,-1,-0.408611,1.242926,0.733654
6172392,23064,5780,5166,31,68,-12,-0.408293,1.241813,0.733970
6188019,23046,5740,5000,48,72,-16,-0.408836,1.241260,0.734588
6203646,22924,5826,4992,52,80,-12,-0.410921,1.240158,0.735667
6219272,22808,5870,4956,56,72,1,-0.411672,1.239554,0.736204
6234898,22784,5938,5016,73,59,7,-0.415381,1.238748,0.737526
6250524,22902,6070,5166,100,58,-1,-0.420291,1.238058,0.739583
6266150,22928,6080,4974,88,72,-7,-0.422974,1.237566,0.740706
6281776,22810,6096,4966,66,72,-8,-0.427214,1.236451,0.743097
6297403,22758,6228,5370,68,61,3,-0.430558,1.235435,0.745220
6313030,22788,6338,5172,83,60,8,-0.432435,1.234889,0.746084
6328656,22916,6414,4836,51,65,4,-0.434588,1.234396,0.746787
6344283,22934,6328,4810,-9,71,5,-0.436807,1.233508,0.748634
6359910,22828,6254,4928,-42,76,8,-0.436215,1.233082,0.748967
6375537,22616,6126,5484,-14,54,14,-0.433455,1.232197,0.748329
6391164,22590,6064,5420,8,26,22,-0.432468,1.231476,0.747715
6406791,22808,6146,5148,46,19,25,-0.433103,1.231427,0.748047
6422417,22968,6242,4754,55,38,18,-0.436973,1.231473,0.749782
6438043,22998,6228,4654,26,44,10,-0.438965,1.231429,0.750694
6453669,22936,6264,4816,10,37,15,-0.441555,1.231390,0.752967
6469295,22742,6238,5188,3,38,20,-0.442345,1.231287,0.753861
6484922,22634,6352,5760,25,33,32,-0.443315,1.231135,0.754679
6500548,22780,6386,5094,74,27,51,-0.444307,1.230927,0.754467
6516175,22938,6266,4476,30,19,26,-0.448888,1.230974,0.755104
6531800,23022,6110,4464,-45,-5,5,-0.452092,1.231437,0.757844
6547425,23098,6112,4668,-24,3,10,-0.451872,1.231832,0.759496
6563050,23052,6316,4870,48,48,27,-0.453568,1.232337,0.761742
6578676,22702,6548,5186,88,88,53,-0.455541,1.232294,0.762334
6594302,22406,6614,5092,71,85,65,-0.460134,1.231527,0.761403
6609929,22332,6558,4952,5,34,52,-0.462210,1.231300,0.761052
6625555,22680,6392,4922,-48,-33,30,-0.463427,1.231437,0.761546
6641181,23028,6338,5136,-54,-30,35,-0.463722,1.232437,0.764467
6656807,23192,6320,5134,-39,0,43,-0.463425,1.232910,0.765009
6672434,23170,6322,5278,-22,46,47,-0.463025,1.233462,0.764752
6688061,22984,6424,5114,12,95,45,-0.462473,1.233304,0.763706
6703688,22728,6554,4908,7,98,34,-0.462517,1.232437,0.761097
6719313,22556,6508,4970,-62,58,23,-0.462135,1.231989,0.760467
6734939,22762,6472,5396,-120,21,29,-0.458036,1.231334,0.759385
6750565,23076,6348,5304,-88,38,26,-0.454906,1.231319,0.758455
6766191,23010,6266,5002,-89,78,27,-0.449360,1.231110,0.756694
6781817,22840,6260,4868,-96,98,33,-0.443868,1.230316,0.753536
6797444,22640,6198,4872,-84,84,31,-0.440713,1.229930,0.751280
6813077,22594,6244,4972,-94,45,29,-0.435878,1.229402,0.748452
6828703,22784,6210,5118,-92,22,27,-0.433328,1.229338,0.747855
6844329,22820,6214,5306,-38,34,36,-0.429822,1.229506,0.746911
6859956,22806,6164,4990,-19,53,35,-0.429380,1.229505,0.746506
6875583,22634,6064,4780,-35,57,33,-0.428403,1.229340,0.745392
6891209,22554,6146,5114,-12,32,27,-0.428054,1.229443,0.744905
6906835,22596,6246,5298,-4,3,37,-0.428228,1.229391,0.745148
6922462,22706,6220,4888,-11,13,37,-0.429458,1.229847,0.745933
6938088,22772,6256,4668,-17,53,18,-0.429995,1.230011,0.746645
6953715,22702,6260,4788,-24,71,0,-0.429457,1.229666,0.747130
6969342,22532,6374,5056,-47,45,10,-0.428697,1.229292,0.747218
6984968,22674,6316,4976,-79,11,34,-0.426300,1.228937,0.747669
7000594,22802,6272,4816,-100,37,29,-0.424548,1.229091,0.747627
7016221,22610,6112,4776,-80,83,18,-0.419755,1.229120,0.746194
7031848,22420,6076,4956,-62,77,21,-0.415230,1.228490,0.743859
7047474,22470,6074,4880,-36,53,23,-0.413343,1.228082,0.743062
7063100,22576,6046,4930,-34,43,13,-0.411841,1.227891,0.742416
7078726,22666,6010,4982,-28,58,1,-0.411084,1.227835,0.742484
7094353,22724,5968,4912,-8,72,2,-0.409914,1.227223,0.742658
7109978,22662,5922,4822,13,70,9,-0.409629,1.226851,0.742834
7125605,22616,5996,4920,29,61,17,-0.410985,1.226458,0.742965
7141232,22674,6180,5238,49,61,11,-0.413440,1.226018,0.743512
7156858,22670,6346,5062,56,68,1,-0.414827,1.225707,0.743796
7172485,22624,6388,4832,29,75,-1,-0.417465,1.224741,0.745554
7188111,22588,6364,5002,-14,84,8,-0.417980,1.224268,0.746296
7203737,22504,6350,5222,-36,76,7,-0.416784,1.223257,0.746024
7219364,22394,6452,5658,-25,51,7,-0.415273,1.222747,0.745715
7234990,22414,6614,5810,19,15,26,-0.413806,1.222000,0.745578
7250617,22528,6882,5410,36,0,21,-0.414782,1.221849,0.746383
7266243,22608,6832,5150,-59,-25,22,-0.417179,1.221703,0.749614
7281869,22696,6454,5054,-136,-53,40,-0.415576,1.222331,0.752330
7297495,22852,5990,4864,-163,-52,30,-0.413114,1.223142,0.752781
7313122,22900,5900,5310,-118,-9,15,-0.407084,1.224597,0.753218
7328748,22688,6064,5302,-49,12,29,-0.403476,1.225084,0.752270
7344373,22456,6106,5112,-13,-11,30,-0.403467,1.225402,0.752258
7360000,22540,5972,4630,-56,-43,18,-0.404092,1.225746,0.753354
7375626,22770,5776,4710,-82,-35,-2,-0.403645,1.227142,0.756286
7391252,22986,5750,4778,-18,2,-12,-0.402720,1.227687,0.757517
7406879,22820,5910,4752,26,31,-2,-0.402884,1.228234,0.760190
7422506,22490,6220,5376,58,45,10,-0.405940,1.228344,0.762216
7438133,22254,6484,5494,101,11,21,-0.407875,1.228112,0.763039
7453759,22340,6442,4772,65,-34,19,-0.414451,1.227943,0.766388
7469385,22690,6262,4410,-15,-37,-1,-0.417406,1.228336,0.769282
7485011,22954,6124,4618,-46,-9,-7,-0.419148,1.229180,0.774142
7500637,22890,6102,4792,-22,23,-2,-0.418798,1.229481,0.775647
7516264,22638,6280,5036,28,42,17,-0.419214,1.229523,0.777079
7531891,22368,6454,5120,64,53,32,-0.421856,1.229267,0.777671
7547517,22236,6564,5060,46,34,32,-0.423741,1.228960,0.778009
7563143,22424,6446,4994,-9,0,17,-0.426570,1.228725,0.779316
7578770,22798,6332,4996,-51,-8,2,-0.426812,1.228819,0.780508
7594396,23002,6250,4954,-60,10,2,-0.425180,1.229026,0.782538
7610022,22940,6308,5050,-35,39,12,-0.423968,1.229039,0.782992
7625647,22736,6500,5262,7,48,25,-0.422554,1.228721,0.782397
7641273,22562,6514,5014,-17,23,32,-0.422887,1.228540,0.782393
7656898,22720,6382,4988,-66,10,15,-0.423018,1.228406,0.782469
7672524,22894,6186,4962,-83,7,6,-0.419977,1.228562,0.783210
7688149,23018,6188,5172,-62,10,5,-0.417822,1.228576,0.783171
7703776,22866,6238,5340,-26,26,13,-0.415500,1.228717,0.783374
7719402,22610,6318,5268,7,43,17,-0.414883,1.228532,0.783194
7735028,22442,6320,5038,3,34,6,-0.415224,1.228034,0.783171
7750653,22522,6222,4828,-20,7,2,-0.415294,1.227869,0.783792
7766279,22802,6068,4962,-31,-13,-5,-0.415228,1.227970,0.785926
7781905,23004,6134,4980,12,2,-6,-0.415609,1.228363,0.788399
7797531,22780,6396,5176,57,25,6,-0.416806,1.228457,0.789768
7813158,22494,6622,5146,62,24,14,-0.420852,1.228241,0.791953
7828783,22322,6666,4986,14,3,5,-0.422812,1.228076,0.793237
7844409,22534,6506,4880,-57,-22,-6,-0.424176,1.227906,0.796316
7860036,22864,6218,4946,-95,-22,-14,-0.423017,1.228057,0.797729
7875661,23032,6070,4984,-71,-5,-10,-0.418515,1.228314,0.799403
7891287,23020,6082,4920,-17,20,-2,-0.417028,1.228343,0.800167
7906913,22564,6342,4858,31,44,5,-0.417240,1.228358,0.800882
7922540,22454,6504,5034,25,33,6,-0.419330,1.227987,0.801747
7938166,22516,6582,5088,13,10,2,-0.420016,1.227687,0.802515
7953792,22756,6572,4920,-20,-2,4,-0.421129,1.227416,0.804708
7969418,22896,6318,4832,-51,8,4,-0.421075,1.227441,0.806047
7985045,22960,6240,4840,-47,30,1,-0.418624,1.227463,0.806633
8000671,22740,6346,4870,-29,47,8,-0.417840,1.227403,0.806691
8016297,22614,6298,5024,-26,50,16,-0.416401,1.227090,0.806074
8031923,22582,6264,5226,-25,34,10,-0.414728,1.226753,0.805062
8047549,22698,6294,5172,-19,14,0,-0.413917,1.226624,0.804639
8063176,22786,6452,5060,-5,9,2,-0.413529,1.226522,0.805639
8078803,22862,6548,4890,2,23,9,-0.413601,1.226353,0.806246
8094429,22782,6550,4932,-9,36,20,-0.414184,1.226255,0.807419
8110055,22772,6478,5030,-35,37,16,-0.414319,1.226121,0.807485
8125681,22824,6334,5128,-54,35,3,-0.412236,1.225930,0.807031
8141308,22776,6368,5150,-49,32,-4,-0.410014,1.225556,0.806472
8156934,22766,6350,4924,-42,29,4,-0.407274,1.225171,0.806140
8172560,22758,6308,4952,-44,30,5,-0.405121,1.224945,0.806223
8188187,22756,6326,5148,-48,35,1,-0.403839,1.224882,0.806191
8203813,22682,6296,5120,-34,34,5,-0.401122,1.224507,0.805545
8219439,22688,6272,5104,-18,31,7,-0.400009,1.224320,0.805266
8235065,22634,6206,4974,-13,23,0,-0.399086,1.224078,0.805217
8250690,22738,6224,4894,-12,21,-6,-0.399050,1.224068,0.805530
8266316,22814,6312,4786,-6,22,-6,-0.399029,1.223854,0.806980
8281943,22736,6406,5040,1,34,-1,-0.399234,1.223866,0.807687
8297570,22656,6468,5034,-4,41,0,-0.399689,1.223585,0.808746
8313197,22620,6416,5018,-17,41,0,-0.399230,1.223019,0.809053
8328824,22616,6382,4996,-36,32,1,-0.398497,1.222721,0.809229
8344450,22724,6358,5084,-37,30,3,-0.396552,1.222464,0.809314
8360076,22672,6312,5088,-17,26,5,-0.395681,1.222299,0.809425
8375703,22592,6374,5154,-4,20,7,-0.395023,1.222105,0.809543
8391330,22648,6400,4984,0,16,8,-0.395213,1.222049,0.809771
8406956,22752,6336,4796,-25,13,3,-0.395924,1.222131,0.811036
8422582,22854,6284,4882,-32,19,1,-0.395344,1.222149,0.812267
8438208,22830,6298,4888,-19,32,2,-0.394902,1.222225,0.812344
8453835,22714,6292,4888,-7,44,6,-0.394294,1.222108,0.812625
8469461,22642,6418,4944,-1,46,8,-0.394433,1.221974,0.812688
8485087,22596,6414,4864,0,36,16,-0.394749,1.221717,0.812504
8500714,22648,6374,4922,-1,25,19,-0.394939,1.221660,0.812731
8516340,22762,6364,5120,-8,20,16,-0.395750,1.221788,0.813153
8531966,22794,6344,5146,-11,28,8,-0.395802,1.221866,0.813318
8547592,22726,6416,5102,-2,44,3,-0.395623,1.221606,0.813046
8563217,22598,6506,4920,0,43,3,-0.395203,1.221051,0.813034
8578843,22656,6500,4932,-13,35,0,-0.395530,1.220860,0.813324
8594469,22750,6462,5016,-32,30,0,-0.395001,1.220573,0.814195
8610094,22850,6414,5080,-41,40,1,-0.393850,1.220376,0.814222
8625721,22676,6408,5208,-33,57,0,-0.391626,1.220004,0.813657
8641348,22606,6468,5056,-13,60,-6,-0.389095,1.219123,0.812246
8656974,22492,6536,4814,-15,53,-7,-0.388504,1.218690,0.812479
8672600,22628,6276,4906,-47,40,-3,-0.386807,1.218072,0.812432
8688226,22774,6296,4946,-52,38,-15,-0.385517,1.218009,0.812395
8703852,22814,6326,4936,-39,50,-17,-0.382199,1.217518,0.812021
8719478,22662,6394,4934,-15,65,-6,-0.380978,1.217217,0.812103
8735105,22440,6482,5074,-3,61,6,-0.380030,1.216514,0.811375
8750732,22346,6468,5014,-10,43,3,-0.379862,1.216254,0.811109
8766359,22440,6444,4948,-29,20,-6,-0.378974,1.215763,0.811478
8781985,22654,6428,4970,-43,11,-13,-0.377319,1.215673,0.812565
8797612,22736,6394,5076,-28,18,0,-0.376409,1.215564,0.813441
8813239,22672,6474,5212,-10,23,10,-0.375608,1.215570,0.813957
8828865,22558,6508,5172,-10,22,10,-0.375608,1.215570,0.813957
8844490,22528,6574,4984,-24,10,-3,-0.375445,1.215444,0.814621
8860116,22620,6506,4884,-62,1,-7,-0.375193,1.215530,0.815386
8875743,22830,6380,4956,-92,7,-4,-0.371829,1.215553,0.816452
8891370,22856,6308,4974,-78,24,1,-0.369426,1.215698,0.816340
8906995,22720,6284,4982,-49,40,10,-0.365703,1.215739,0.815505
8922622,22528,6392,5112,-26,43,17,-0.363747,1.215676,0.814383
8938248,22394,6392,4986,-38,30,13,-0.362940,1.215549,0.813964
8953875,22498,6236,5024,-51,19,4,-0.360975,1.215552,0.813310
8969502,22628,6214,5070,-40,14,-3,-0.359701,1.215593,0.813216
8985129,22694,6250,4992,-14,13,6,-0.358527,1.215789,0.813447
9000756,22646,6306,4980,-3,18,15,-0.358516,1.215856,0.813915
9016383,22652,6342,4976,-7,26,15,-0.359490,1.216175,0.814137
9032009,22594,6332,4988,-13,26,9,-0.359790,1.216300,0.814469
9047635,22564,6332,5044,-24,22,4,-0.359479,1.216242,0.814605
9063261,22640,6408,5108,-21,18,7,-0.358959,1.216305,0.814986
9078888,22662,6398,5028,-16,12,14,-0.358500,1.216381,0.815062
9094514,22686,6432,4956,-17,12,17,-0.358643,1.216706,0.815804
9110141,22620,6420,4998,-30,22,13,-0.358944,1.216830,0.816137
9125767,22586,6348,5014,-38,27,14,-0.357771,1.216961,0.815902
9141392,22514,6240,5052,-34,27,13,-0.356745,1.216956,0.815727
9157019,22584,6266,5072,-20,26,5,-0.355517,1.217009,0.815328
9172646,22582,6334,5016,-5,10,1,-0.355256,1.217028,0.815628
9188271,22690,6394,5014,-5,7,3,-0.355692,1.217084,0.816492
9203898,22774,6380,4902,-13,16,3,-0.356234,1.217294,0.817684
9219525,22744,6434,4974,-15,31,3,-0.356222,1.217359,0.818154
9235150,22548,6424,5054,-9,38,8,-0.356110,1.217243,0.818513
9250776,22484,6426,5060,-10,32,6,-0.356057,1.217166,0.818349
9266402,22572,6358,4996,-19,20,3,-0.355697,1.217003,0.818537
9282027,22676,6408,5064,-24,17,-2,-0.355318,1.216932,0.818978
9297652,22682,6400,4960,-27,23,-2,-0.354677,1.216879,0.819719
9313278,22666,6436,4894,-25,35,4,-0.353269,1.216777,0.820202
9328905,22562,6456,5082,-23,44,7,-0.352752,1.216775,0.820115
9344532,22498,6426,5070,-24,44,3,-0.351471,1.216331,0.819550
9360159,22510,6372,4930,-29,35,1,-0.350655,1.216205,0.819128
9375785,22560,6290,4980,-31,24,0,-0.349454,1.216008,0.819146
9391411,22592,6302,4928,-14,17,-3,-0.348673,1.216024,0.819358
9407037,22656,6438,4976,-2,21,2,-0.348597,1.216050,0.820348
9422663,22724,6460,5024,2,30,7,-0.349250,1.215982,0.820963
9438289,22604,6544,4996,-10,28,10,-0.349699,1.215972,0.821355
9453915,22606,6456,4934,-43,24,9,-0.349384,1.215913,0.821490
9469541,22676,6384,4908,-67,28,3,-0.348082,1.215926,0.821613
9485167,22688,6390,5030,-67,33,-2,-0.344395,1.215808,0.821052
9500794,22652,6396,4990,-46,37,3,-0.342532,1.215679,0.820455
9516421,22572,6374,4998,-27,33,14,-0.340144,1.215547,0.819770
9532048,22614,6306,5014,-29,27,12,-0.339697,1.215557,0.819378
9547675,22590,6270,4988,-31,23,-3,-0.338442,1.215611,0.818981
9563301,22648,6340,4988,-22,26,-5,-0.336995,1.215535,0.819245
9578928,22578,6378,5034,-9,24,4,-0.336411,1.215494,0.819678
9594553,22556,6356,5064,1,16,5,-0.336858,1.215483,0.820070
9610178,22574,6422,4920,-4,14,2,-0.337119,1.215503,0.820456
9625804,22660,6452,4982,-14,18,0,-0.337801,1.215576,0.821703
9641430,22604,6452,4938,-20,24,0,-0.337776,1.215640,0.822173
9657057,22526,6412,4962,-26,23,-1,-0.337113,1.215586,0.822909
9672683,22620,6394,4898,-33,20,-3,-0.336474,1.215467,0.823176
9688310,22610,6394,4956,-32,28,0,-0.335071,1.215467,0.823604
9703936,22636,6382,4950,-21,32,5,-0.333133,1.215298,0.823525
9719562,22572,6350,4924,-20,32,5,-0.333133,1.215298,0.823525
9735189,22534,6378,4876,-20,35,5,-0.332282,1.215237,0.823571
9750816,22522,6402,5032,-10,29,3,-0.331962,1.215177,0.823704
9766442,22582,6394,5000,-7,23,5,-0.332172,1.215120,0.823925
9782077,22626,6464,5020,-16,24,5,-0.332089,1.215106,0.824228
9797704,22626,6462,4952,-26,27,1,-0.331501,1.215064,0.824660
9813330,22642,6448,4998,-38,31,2,-0.331208,1.215108,0.824743
9828957,22578,6494,4988,-49,32,3,-0.329264,1.214939,0.824663
9844583,22568,6492,5020,-53,31,4,-0.326199,1.214689,0.824242
9860208,22534,6412,5094,-56,25,15,-0.325131,1.214685,0.824067
9875835,22558,6236,5010,-55,16,17,-0.321796,1.214745,0.823018
9891461,22664,6222,5058,-41,13,7,-0.320349,1.214933,0.822567
9907087,22688,6306,5032,-28,12,5,-0.318970,1.215302,0.822233
9922713,22638,6402,5022,-22,11,6,-0.318392,1.215364,0.822615
9938338,22684,6438,4952,-34,19,10,-0.317976,1.215619,0.822809
9953964,22654,6390,5016,-52,32,3,-0.316639,1.215737,0.822884
9969591,22642,6322,5046,-60,44,-5,-0.314783,1.215685,0.822450
9985218,22608,6242,5014,-59,45,-3,-0.310569,1.215187,0.821268
10000844,22568,6196,4944,-50,45,2,-0.308657,1.215059,0.820669
10016471,22548,6130,4962,-39,46,0,-0.305649,1.214786,0.819261
10032098,22542,6250,5040,-21,49,-5,-0.304608,1.214719,0.818617
10047724,22542,6326,5068,-5,46,-5,-0.303123,1.214230,0.817878
10063351,22516,6396,4998,-1,34,3,-0.303288,1.214095,0.817933
10078978,22528,6332,4988,-7,26,8,-0.303447,1.213857,0.818040
10094604,22542,6306,4962,-10,24,5,-0.303941,1.213923,0.818594
10110231,22542,6280,4906,-12,25,0,-0.304164,1.213969,0.818764
10125858,22492,6332,5048,-7,26,-2,-0.303891,1.213987,0.819062
10141484,22520,6474,5136,-5,23,2,-0.304059,1.213993,0.819749
10157110,22514,6512,5090,-14,21,5,-0.304167,1.213818,0.820322
10172736,22552,6494,4988,-45,23,9,-0.304064,1.213805,0.820624
10188363,22638,6370,4998,-73,23,1,-0.301389,1.213873,0.820352
10203989,22610,6220,5084,-76,14,-3,-0.296838,1.213889,0.819646
10219616,22684,6326,5064,-48,16,2,-0.294859,1.213928,0.819466
10235242,22574,6342,5060,-35,18,10,-0.292208,1.214073,0.819359
10250868,22580,6328,5026,-37,18,13,-0.291487,1.214205,0.819217
10266494,22594,6324,5004,-49,14,11,-0.290206,1.214440,0.818937
10282121,22530,6232,5020,-65,12,4,-0.288596,1.214512,0.818840
10297747,22512,6114,5008,-66,6,3,-0.285132,1.214817,0.818377
10313372,22574,6074,4960,-44,4,3,-0.283553,1.215069,0.818397
10328999,22622,6220,5104,-10,5,-2,-0.281675,1.215442,0.818667
10344625,22566,6374,5118,8,3,2,-0.282370,1.215693,0.820033
10360251,22628,6424,4986,-8,-2,9,-0.283253,1.215894,0.820626
10375877,22592,6332,4938,-47,-1,2,-0.283444,1.216218,0.822075
10391503,22644,6212,4986,-67,4,-11,-0.282291,1.216458,0.822492
10407129,22632,6140,5022,-58,3,-15,-0.278259,1.216543,0.823039
10422754,22626,6216,4978,-21,3,-9,-0.276715,1.216542,0.823469
10438380,22592,6278,5044,9,-1,3,-0.276839,1.216789,0.824757
10454006,22632,6302,5030,-9,-3,0,-0.278498,1.217174,0.826258
10469633,22690,6280,4922,-33,3,-16,-0.278498,1.217174,0.826258
10485260,22652,6254,4930,-41,11,-17,-0.277770,1.217433,0.827763
10500887,22634,6134,5044,-26,14,-10,-0.275459,1.217371,0.828934
10516514,22676,6212,5250,4,22,-7,-0.274471,1.217370,0.829453
10532141,22686,6352,5392,48,34,-9,-0.274704,1.217312,0.829672
10547767,22578,6520,5292,49,25,-1,-0.278124,1.216812,0.830303
10563394,22566,6478,4896,14,13,1,-0.279568,1.216503,0.831096
10579021,22614,6282,4804,-35,11,-1,-0.280805,1.216569,0.832438
10594648,22680,6114,4798,-47,17,-13,-0.279346,1.216822,0.833164
10610274,22732,6088,4902,-27,25,-20,-0.277914,1.216834,0.833289
10625899,22740,6142,4888,14,30,-16,-0.277107,1.216697,0.833855
10641524,22686,6272,4968,48,34,-7,-0.277968,1.216716,0.834331
10657150,22554,6412,4966,57,34,-2,-0.281923,1.216458,0.835645
10672776,22464,6508,4902,40,25,-4,-0.283759,1.216284,0.836473
10688402,22482,6450,4842,12,11,-6,-0.287116,1.216160,0.838342
10704028,22618,6234,4880,-7,-3,-9,-0.287514,1.216101,0.839252
10719654,22634,6198,4902,4,-8,-13,-0.288405,1.216342,0.841328
10735279,22694,6408,5138,44,1,-14,-0.290212,1.216644,0.843365
10750904,22694,6630,5218,70,15,-7,-0.292606,1.216709,0.844885
10766531,22580,6722,5114,68,21,5,-0.297622,1.216408,0.846884
10782158,22558,6606,4916,21,15,9,-0.300236,1.216279,0.847971
10797783,22588,6386,4968,-32,1,-3,-0.301664,1.216205,0.849359
10813409,22728,6278,5230,-38,-9,-15,-0.300874,1.216395,0.849704
10829035,22858,6498,5194,28,-7,-12,-0.299352,1.216521,0.850783
10844660,22772,6614,5114,70,8,3,-0.302439,1.216508,0.852911
10860286,22734,6574,4974,48,6,15,-0.305347,1.216497,0.854347
10875913,22680,6470,4892,14,-10,3,-0.309381,1.216820,0.855746
10891539,22700,6444,5074,-5,-24,-15,-0.310432,1.217041,0.856841
10907165,22862,6386,4974,6,-29,-21,-0.310824,1.217296,0.859534
10922792,22910,6574,4950,40,-15,-18,-0.312056,1.217408,0.861363
10938419,22790,6614,5172,55,6,-9,-0.315991,1.217565,0.864417
10954045,22624,6666,5248,43,1,-1,-0.318105,1.217505,0.865588
10969672,22586,6774,5208,47,-18,0,-0.321704,1.217309,0.867667
10985299,22678,6784,4898,53,-31,-4,-0.325989,1.217524,0.870597
11000926,22818,6768,4782,27,-36,-4,-0.328374,1.217634,0.872606
11016552,22836,6626,4874,-13,-40,0,-0.332008,1.218232,0.876736
11032178,22986,6512,5112,-9,-23,-5,-0.332354,1.218633,0.878210
11047803,22970,6684,5346,39,7,-11,-0.333238,1.218931,0.879804
11063430,22844,6924,5184,98,23,3,-0.334987,1.218678,0.880437
11079055,22838,7138,5136,119,34,24,-0.342092,1.218226,0.882411
11094681,22760,7044,4864,35,37,24,-0.348781,1.217864,0.883170
11110307,22780,6836,4708,-67,17,4,-0.349716,1.217670,0.883503
11125934,22898,6664,4700,-108,0,-4,-0.345073,1.217685,0.882798
11141560,22950,6582,4830,-83,3,5,-0.341710,1.217727,0.882756
11157187,22964,6540,4932,-36,19,15,-0.337570,1.218107,0.881740
11172812,22860,6574,4934,1,27,24,-0.336784,1.218166,0.881441
11188437,22752,6652,5048,7,23,28,-0.337372,1.218425,0.880160
11204063,22686,6688,5056,-9,5,24,-0.337790,1.218508,0.879729
11219689,22776,6710,4946,-14,-23,14,-0.338054,1.218882,0.879717
11235315,22912,6726,4840,-10,-23,13,-0.338815,1.219418,0.881249
11250941,22928,6712,4870,0,-6,7,-0.339283,1.219784,0.881937
11266567,22838,6822,4976,-3,3,5,-0.340350,1.219945,0.883572
11282193,22858,6800,5126,-11,-2,16,-0.340670,1.220061,0.883935
11297820,22774,6796,4996,-7,-2,27,-0.340764,1.220238,0.884086
11313446,22832,6794,4968,-9,-4,25,-0.340597,1.220372,0.884052
11329076,22890,6760,5136,-13,-3,15,-0.341410,1.220801,0.884621
11344702,23028,6874,5040,-3,8,8,-0.410443,0.572053,1.268550
11360329,23084,6992,4916,-22,16,13,-0.341390,1.220853,0.885109
11375956,23050,6850,5064,-60,19,26,-0.341390,1.220853,0.885109
11391583,23072,6868,5300,-66,36,24,-0.337517,1.220808,0.883699
11407208,23048,6948,5066,-51,47,14,-0.332746,1.220468,0.880685
11422835,22956,6878,4742,-50,47,9,-0.330692,1.220221,0.879395
11438461,22838,6724,4740,-102,39,10,-0.326559,1.219800,0.877998
11454086,22820,6522,4958,-144,26,8,-0.322276,1.219618,0.876539
11469713,22956,6574,5224,-92,19,13,-0.312584,1.219655,0.873429
11485338,22988,6542,5066,-57,27,28,-0.306109,1.219536,0.870797
11500964,22944,6416,4744,-43,28,23,-0.306109,1.219536,0.870797
11516591,22848,6490,4800,-41,8,7,-0.302346,1.219994,0.868335
11532216,22856,6544,4862,-21,-14,5,-0.301584,1.220126,0.868211
11547843,22960,6560,5108,1,-13,13,-0.301658,1.220664,0.869652
11563469,23088,6640,5146,12,29,21,-0.302361,1.220917,0.870064
11579095,23020,6764,5056,14,66,29,-0.303338,1.220799,0.868874
11594720,22748,6880,4890,-15,54,19,-0.303964,1.220618,0.867811
11610347,22670,6746,4820,-58,22,8,-0.302772,1.220022,0.865713
11625973,22768,6612,4972,-90,-4,-2,-0.298582,1.219887,0.865442
11641599,22912,6594,4946,-81,-12,-7,-0.295424,1.219963,0.865484
11657225,23140,6652,4956,-46,8,-2,-0.290604,1.220060,0.865754
11672852,23138,6760,5086,-23,45,12,-0.289721,1.220069,0.865970
11688478,22920,6808,5104,-46,67,20,-0.287441,1.219647,0.863844
11704104,22816,6782,4968,-61,50,12,-0.285105,1.219279,0.862206
11719729,22852,6724,4884,-74,27,5,-0.280669,1.218739,0.860469
11735354,22902,6526,5104,-75,22,11,-0.275653,1.218608,0.859413
11750981,22990,6578,5050,-61,32,13,-0.273109,1.218607,0.858366
11766608,22956,6598,5046,-57,45,16,-0.268985,1.218563,0.856267
11782234,22860,6562,4946,-56,42,12,-0.267002,1.218385,0.855168
11797861,22876,6484,4862,-69,21,6,-0.262773,1.218218,0.853413
11813486,22920,6512,4972,-75,4,1,-0.260791,1.218348,0.853110
11829113,23060,6690,5204,-44,16,-1,-0.256261,1.218454,0.852764
11844740,23080,6790,5058,-46,43,9,-0.255057,1.218451,0.852589
11860366,22910,6662,4856,-85,47,21,-0.251236,1.217910,0.850950
11875992,22710,6536,4958,-110,20,9,-0.245292,1.217860,0.848593
11891617,22842,6522,5064,-107,0,2,-0.241410,1.217912,0.847853
11907242,23020,6434,5100,-91,12,7,-0.234268,1.218091,0.846633
11922868,23030,6388,5084,-91,40,7,-0.231015,1.218040,0.846017
11938495,22946,6382,4974,-100,48,3,-0.224159,1.217869,0.843219
11954121,22848,6372,4942,-83,36,3,-0.220343,1.217685,0.841863
11969748,22786,6430,5032,-58,14,10,-0.214836,1.217692,0.840074
11985374,22994,6512,5248,-64,16,14,-0.211469,1.217925,0.839555
12001001,23088,6574,5042,-110,38,15,-0.209170,1.217936,0.838899
12016627,22964,6536,4816,-142,60,13,-0.200729,1.217746,0.835540
12032253,22828,6448,4920,-159,66,8,-0.195216,1.217574,0.833617
12047879,22786,6384,5056,-172,66,3,-0.182666,1.217031,0.829080
12063506,22860,6328,4946,-180,69,1,-0.176422,1.216706,0.826731
12079133,22910,6252,4944,-195,74,2,-0.161796,1.216036,0.821599
12094759,22910,6200,5104,-191,81,10,-0.154250,1.215782,0.818563
12110385,22866,6200,5020,-228,95,0,-0.139356,1.215208,0.812024
12126012,22678,6076,4990,-237,84,0,-0.121333,1.214324,0.805290
12141639,22636,6000,4960,-190,68,15,-0.112449,1.214016,0.801924
12157266,22598,5918,5044,-168,58,23,-0.098544,1.213854,0.796306
12172892,22794,5804,5216,-200,55,15,-0.092654,1.213909,0.793622
12188518,23274,6222,5304,-195,123,38,-0.077856,1.213870,0.787179
12204144,23178,6440,4826,-227,235,57,-0.070446,1.213400,0.781997
12219770,22312,6294,4494,-354,269,6,-0.052279,1.210949,0.767934
12235397,21542,5786,4804,-508,130,-50,-0.020088,1.207949,0.755009
12251023,21776,5318,5044,-544,24,-65,-0.000208,1.207028,0.749755
12266650,22360,4746,5060,-494,-27,-65,0.041503,1.206617,0.742040
12282277,22730,4200,4980,-381,-25,-50,0.060023,1.207096,0.739040
12297904,22796,4036,5038,-233,2,-33,0.087708,1.208505,0.733736
12313530,22604,4194,5088,-56,5,-22,0.095292,1.209297,0.731667
12329156,22500,4578,5194,86,-25,-10,0.097891,1.210718,0.730834
12344782,22680,4950,5206,178,-51,8,0.093736,1.211736,0.732567
12360408,22936,5442,5076,206,-44,9,0.078930,1.213798,0.738305
12376034,23004,5628,5012,174,-13,0,0.062468,1.215493,0.745045
12391661,22898,5872,5040,113,4,-1,0.055743,1.216088,0.748093
12407288,22754,5878,5048,38,5,-4,0.046692,1.216760,0.752660
12422914,22764,5772,5046,-41,5,-8,0.045315,1.216974,0.754025
12438540,22838,5674,4978,-105,16,-10,0.049205,1.217356,0.755190
12454167,22818,5544,5136,-141,31,-10,0.053408,1.217615,0.754940
12469792,22658,5350,5078,-154,34,-4,0.064242,1.217774,0.752257
12485418,22602,5126,5102,-149,19,-1,0.069778,1.217897,0.750802
12501043,22704,5042,5110,-121,17,7,0.081352,1.218547,0.747579
12516670,22836,5196,5088,-66,54,21,0.089187,1.219333,0.744816
12532295,22652,5270,4986,-67,84,18,0.090937,1.219503,0.742959
12547921,22372,5324,4968,-81,81,4,0.095003,1.219310,0.738918
12563547,22304,5278,4944,-97,45,-6,0.097892,1.219228,0.737312
12579173,22400,5138,4994,-115,6,-3,0.105013,1.219407,0.735449
12594799,22636,5020,5008,-101,-6,2,0.109224,1.219830,0.734991
12610424,22750,5000,5066,-78,16,1,0.116818,1.220898,0.733960
12626051,22548,5090,4976,-34,42,9,0.120786,1.221615,0.732229
12641678,22430,5002,4912,-44,28,0,0.121673,1.221785,0.731543
12657304,22400,4978,4942,-50,-5,-7,0.124740,1.222536,0.730992
12672931,22598,4976,4956,-17,-29,-5,0.126372,1.222924,0.731421
12688558,22694,5046,5068,4,-30,1,0.127216,1.224453,0.733542
12704185,22678,5130,5096,1,-17,-2,0.127174,1.225149,0.734684
12719812,22628,5202,4968,13,-5,1,0.126694,1.226184,0.736365
12735438,22564,5170,5040,15,-16,1,0.125687,1.226618,0.737327
12751063,22588,5066,5070,-1,-43,-12,0.124912,1.227720,0.739594
12766690,22816,5092,5040,5,-51,-7,0.125291,1.229060,0.742789
12782317,22946,5288,5208,4,-29,2,0.124953,1.229820,0.744540
12797944,23016,5436,5100,-14,20,4,0.124766,1.230907,0.746041
12813571,22838,5530,4864,-40,52,4,0.125132,1.231013,0.745983
12829197,22632,5492,4952,-90,43,-6,0.128147,1.230898,0.744882
12844824,22658,5216,5116,-163,10,-18,0.132355,1.230821,0.744183
12860451,22788,4946,5132,-169,-4,-24,0.145852,1.231083,0.742808
12876078,22944,4828,5074,-109,18,-11,0.158132,1.231634,0.740627
12891704,22814,4848,4980,-80,28,-7,0.162535,1.231808,0.739494
12907329,22764,5002,5072,-51,13,10,0.167808,1.232473,0.737808
12922955,22782,5004,5122,-64,-1,18,0.169798,1.232829,0.737138
12938581,23002,4950,5168,-67,6,26,0.174613,1.233946,0.735619
12954208,23032,4856,5078,-29,41,34,0.176830,1.234312,0.734539
12969834,22800,5024,4932,22,63,31,0.176924,1.235068,0.731612
12985460,22606,5230,4996,29,50,31,0.174945,1.235228,0.730528
13001086,22524,5408,4892,-21,16,18,0.171504,1.235502,0.729235
13016713,22554,5336,4980,-89,0,12,0.173174,1.236081,0.729485
13032340,22700,5082,4986,-152,3,6,0.177303,1.236400,0.729099
13047966,22744,4776,5040,-184,11,-8,0.190448,1.237000,0.726980
13063592,22696,4602,5004,-133,8,-1,0.197540,1.237367,0.725273
13079217,22712,4684,5044,-66,-1,14,0.207427,1.238215,0.723140
13094843,22744,4714,5120,-56,-23,16,0.210048,1.238763,0.722154
13110470,22834,4828,5114,-39,-28,8,0.214218,1.240200,0.721969
13126097,22834,4900,5024,-12,-31,15,0.215715,1.240885,0.722247
13141724,22802,4762,5006,-6,-38,11,0.217398,1.242141,0.723377
13157351,22764,4814,5062,7,-46,10,0.218034,1.243733,0.725166
13172978,22832,4882,5100,5,-64,17,0.218052,1.244534,0.726409
13188604,23004,4848,5016,-17,-80,17,0.218993,1.246501,0.729309
13204230,23078,4826,5000,-9,-83,25,0.220351,1.247532,0.730944
13219856,23006,4850,4950,6,-77,33,0.221789,1.249918,0.733995
13235483,22890,4896,4998,6,-78,28,0.222021,1.251043,0.735015
13251109,22778,4924,5088,13,-112,13,0.222438,1.253366,0.738463
13266736,22912,4998,4994,14,-136,8,0.223284,1.255583,0.743916
13282362,23090,4956,4976,18,-132,9,0.223956,1.256916,0.747120
13297988,23144,5010,4988,8,-108,4,0.225053,1.259364,0.753466
13313615,23138,5008,5156,-2,-92,-1,0.226094,1.260431,0.756321
13329242,23144,4966,5118,11,-104,2,0.227706,1.262106,0.761157
13344868,23192,5040,5218,22,-112,3,0.228666,1.263045,0.763670
13360494,23250,5116,5136,19,-107,7,0.228375,1.265037,0.769404
13376120,23320,5124,4948,1,-90,13,0.229030,1.265836,0.772010
13391747,23422,5148,5006,-1,-77,17,0.230501,1.267561,0.776412
13407372,23374,5200,5204,-14,-68,12,0.232131,1.269103,0.779800
13422998,23302,5112,5302,-36,-64,1,0.233196,1.269657,0.780745
13438624,23292,5014,5232,-47,-69,-3,0.238749,1.270449,0.782897
13454250,23468,4960,5032,-18,-71,10,0.241424,1.271075,0.783886
13469876,23612,5006,4998,1,-56,14,0.244581,1.272298,0.786140
13485503,23576,5020,5038,10,-35,12,0.244880,1.272850,0.787196
13501130,23520,5124,5162,6,-27,12,0.244432,1.273641,0.788358
13516757,23498,5264,5246,-20,-29,7,0.245114,1.274254,0.789177
13532384,23486,5252,5274,-40,-22,1,0.246896,1.274373,0.789424
13548010,23554,5114,5024,-64,-15,2,0.251529,1.274555,0.789162
13563637,23576,4904,5040,-64,-3,0,0.254781,1.274628,0.789024
13579264,23518,4868,5030,-49,2,5,0.261257,1.274806,0.787303
13594890,23490,4972,5140,-13,-2,11,0.262833,1.274929,0.786721
13610515,23536,5106,5188,21,-7,17,0.263715,1.275190,0.785363
13626141,23592,5244,5174,6,-7,8,0.262455,1.275251,0.785290
13641767,23644,5116,5026,-41,13,2,0.262455,1.275251,0.785290
13657393,23576,4940,5008,-51,30,5,0.266174,1.275138,0.783604
13673019,23456,4898,5174,-42,32,8,0.268246,1.275024,0.782093
13688646,23518,4848,5184,-19,21,15,0.270776,1.274720,0.779040
13704272,23518,4972,5088,16,5,26,0.270964,1.274712,0.777754
13719899,23492,5044,5122,45,-7,32,0.268527,1.275090,0.776328
13735525,23642,5100,5188,62,-16,33,0.265749,1.275391,0.776434
13751151,23710,5162,5138,51,-17,26,0.259573,1.275957,0.776897
13766778,23684,5240,5020,1,6,8,0.255920,1.276330,0.777300
13782403,23668,5236,5046,-28,23,1,0.255920,1.276330,0.777300
13798030,23512,5190,5114,-37,20,3,0.258546,1.275958,0.776154
13813656,23528,5120,5228,-31,5,3,0.260024,1.275839,0.775561
13829283,23704,5102,5202,-32,-7,2,0.263157,1.275648,0.774585
13844909,23744,5022,5126,-30,3,3,0.264778,1.275649,0.774410
13860536,23704,5094,5130,-17,21,4,0.266990,1.275651,0.773318
13876162,23648,5082,5134,-9,22,6,0.267643,1.275532,0.772814
13891788,23630,5128,5112,-7,13,4,0.267367,1.275218,0.771772
13907414,23618,5232,5054,-12,6,4,0.268018,1.275098,0.771269
13923041,23692,5216,5148,-24,11,4,0.268453,1.275038,0.771432
13938668,23700,5180,5062,-38,23,0,0.270553,1.274799,0.770340
13954294,23582,5176,5064,-44,28,0,0.272035,1.274606,0.769542
13969921,23554,5052,5132,-39,23,3,0.275592,1.274173,0.767657
13985547,23568,5000,5208,-24,16,5,0.277061,1.273981,0.766862
14001173,23630,5058,5088,-13,13,6,0.278695,1.273800,0.765613
14016798,23616,5136,5174,-5,18,5,0.278863,1.273813,0.765157
14032425,23638,5150,5170,-6,21,7,0.279099,1.273679,0.764289
14048052,23618,5152,5152,-12,26,5,0.278806,1.273364,0.763261
14063679,23572,5136,5138,-20,16,3,0.279435,1.273243,0.762763
14079305,23700,5120,5086,-11,4,8,0.280291,1.273015,0.762225
14094931,23804,5156,5050,-14,-2,7,0.280853,1.273123,0.762178
14110557,23834,5152,5184,-27,9,6,0.281973,1.273257,0.762047
14126184,23674,5202,5168,-29,22,1,0.283160,1.273245,0.761503
14141810,23608,5216,5156,-26,27,7,0.285224,1.272930,0.760217
14157437,23646,5140,5160,-29,18,4,0.287077,1.272567,0.758730
14173064,23746,5084,5122,-25,13,3,0.288317,1.272434,0.758601
14188689,23708,5120,5136,-15,21,3,0.289870,1.272326,0.757566
14204315,23724,5172,5148,-5,21,5,0.290325,1.272193,0.757524
14219941,23678,5226,5170,-5,20,7,0.289982,1.271949,0.756711
14235568,23662,5144,5090,-23,27,3,0.289811,1.271827,0.756304
14251194,23586,5096,5132,-35,29,-1,0.291479,1.271451,0.755278
14266820,23616,5020,5024,-37,22,-3,0.292894,1.271257,0.754495
14282447,23648,5106,5142,-12,17,3,0.295649,1.271015,0.753337
14298077,23678,5172,5122,5,18,11,0.295681,1.270941,0.753134
14313703,23614,5220,5198,0,19,11,0.295088,1.270878,0.752567
14329329,23604,5232,5140,-18,18,7,0.294914,1.270756,0.752164
14344956,23632,5248,5080,-28,22,9,0.295512,1.270634,0.751673
14360582,23646,5214,5158,-31,25,11,0.297684,1.270440,0.750807
14376208,23634,5136,5076,-33,23,7,0.298278,1.270318,0.750317
14391835,23690,5074,5040,-34,18,6,0.300584,1.270135,0.749001
14407462,23734,5122,5196,-30,17,9,0.303622,1.270181,0.748037
14423088,23752,5114,5158,-23,20,11,0.304208,1.270059,0.747548
14438714,23780,5216,5100,-20,23,7,0.305282,1.270008,0.746360
14454340,23696,5222,5148,-27,29,6,0.306077,1.269935,0.746071
14469967,23616,5150,5108,-31,30,3,0.308030,1.269616,0.744809
14485592,23626,5088,5092,-16,25,6,0.308608,1.269494,0.744322
14501217,23646,5154,5180,-5,19,7,0.308999,1.269249,0.743438
14516844,23638,5210,5174,-8,17,5,0.309440,1.269115,0.743401
14532471,23652,5176,5088,-15,23,3,0.309605,1.269052,0.742752
14548097,23660,5120,5138,-14,29,2,0.310239,1.268811,0.742681
14563723,23650,5124,5166,-13,31,0,0.310811,1.268689,0.742196
14579348,23652,5120,5094,-6,20,-3,0.310881,1.268309,0.741366
14594974,23674,5188,5106,0,12,-3,0.310595,1.268131,0.742030
14610600,23744,5176,5116,-7,20,-7,0.311219,1.268121,0.742390
14626226,23740,5230,5178,-15,33,-4,0.311095,1.267880,0.742406
14641852,23672,5284,5176,-15,31,0,0.311949,1.267457,0.742102
14657478,23708,5310,5068,-16,15,4,-3.141573,-3.141432,2.707133
14673105,23698,5178,5056,-30,16,5,0.313231,1.267132,0.742191
14688732,23716,5280,5116,-34,16,2,0.315142,1.267074,0.742178
14704358,23722,5290,5168,-36,17,3,0.316832,1.266968,0.741969
14719985,23770,5270,5192,-40,21,4,0.319547,1.266762,0.741472
14735611,23750,5172,5044,-52,25,4,0.320824,1.266715,0.741101
14751237,23712,5114,5072,-45,25,8,0.324739,1.266580,0.739822
14766864,23674,5158,5096,-35,20,5,0.326377,1.266517,0.739004
14782490,23690,5168,5138,-28,14,4,0.328981,1.266504,0.738295
14798115,23692,5132,5200,-29,19,7,0.331211,1.266506,0.738033
14813741,23720,5122,5056,-27,22,6,0.332125,1.266399,0.737912
14829367,23696,5124,5088,-27,24,4,0.333977,1.266385,0.737290
14844994,23674,5142,5134,-25,24,4,0.334857,1.266322,0.736560
14860620,23654,5186,5094,-18,18,5,0.336364,1.266248,0.736188
14876246,23738,5278,5116,-14,13,6,0.337104,1.266249,0.736101
14891872,23722,5276,5212,-22,18,5,0.337902,1.266132,0.736425
14907499,23742,5218,5028,-44,26,0,0.338640,1.266132,0.736338
14923126,23672,5138,5150,-52,28,1,0.341810,1.265878,0.735560
14938752,23606,5074,5128,-38,28,1,0.345068,1.265635,0.734339
14954379,23632,5066,5064,-23,21,1,0.346325,1.265513,0.733773
14970005,23650,5108,5158,-12,12,1,0.347817,1.265440,0.733401
14985632,23740,5122,5122,-7,8,2,0.348212,1.265381,0.733563
15001259,23784,5140,5120,-4,15,0,0.348791,1.265521,0.734314
15016886,23790,5310,5224,-5,21,0,0.349031,1.265569,0.734508
15032512,23776,5238,5104,-26,25,-1,0.348878,1.265328,0.734527
15048139,23710,5210,5092,-35,25,-1,0.350581,1.265030,0.734532
15063766,23704,5144,5044,-34,25,0,0.352069,1.264956,0.734161
15079392,23654,5132,5036,-26,26,3,0.354315,1.264841,0.734309
15095019,23674,5190,5132,-18,19,3,0.355406,1.264826,0.733776
15110646,23722,5192,5144,-24,14,1,0.356527,1.264768,0.733850
15126273,23748,5152,5068,-38,19,0,0.357647,1.264710,0.733924
15141899,23688,5064,5178,-41,22,4,0.360581,1.264639,0.733378
15157524,23708,5116,5148,-30,23,7,0.361783,1.264592,0.733009
15173149,23644,5156,5088,-24,23,5,0.363675,1.264588,0.731947
15188775,23692,5176,5108,-18,20,6,0.365147,1.264515,0.731576
15204402,23706,5254,5068,-15,21,8,0.365870,1.264516,0.731489
15220029,23674,5154,5158,-28,22,5,0.366591,1.264516,0.731401
15235656,23666,5120,5110,-28,22,7,0.367477,1.264335,0.731085
15251283,23648,5154,5054,-17,26,9,0.368887,1.264380,0.730304
15266908,23684,5172,5124,-18,26,9,0.369354,1.264332,0.730024
15282535,23662,5178,5150,-22,16,8,0.370430,1.264317,0.729491
15298161,23840,5210,5128,-17,6,9,0.371707,1.264500,0.729545
15313787,23868,5300,5122,-22,21,10,0.372399,1.264576,0.729654
15329413,23772,5164,5072,-32,39,6,0.373835,1.264578,0.729479
15345039,23696,5134,5096,-33,34,7,0.374679,1.264439,0.728558
15360666,23654,5098,5098,-22,18,9,0.376621,1.264243,0.727710
15376291,23746,5164,5102,-16,15,8,0.377310,1.264318,0.727819
15391917,23788,5228,5198,-18,18,6,0.378354,1.264378,0.727483
15407543,23778,5258,5132,-26,20,5,0.378739,1.264320,0.727644
15423169,23720,5174,5156,-35,31,7,0.380880,1.264323,0.727383
15438795,23634,4990,5166,-24,33,8,0.382423,1.264184,0.726374
15454421,23666,5070,5082,-11,21,8,0.383226,1.264120,0.725650
15470046,23692,5212,5040,-8,15,7,0.383552,1.264179,0.725401
15485673,23824,5262,5188,-9,18,10,0.383552,1.264179,0.725401
15501299,23776,5310,5142,-12,25,8,0.383789,1.264303,0.725789
15516926,23708,5246,5118,-26,25,10,1.515367,-0.304484,-0.076722
15532552,23734,5164,5122,-30,25,7,0.385381,1.264048,0.725192
15548179,23706,5148,5092,-32,23,4,0.386800,1.264050,0.725018
15563805,23720,5112,5156,-26,29,4,0.388685,1.263928,0.724368
15579432,23704,5208,5080,-15,27,6,0.389858,1.263806,0.723805
15595059,23678,5178,5042,-10,16,9,0.389858,1.263806,0.723805
15610686,23694,5166,5080,-18,12,7,0.390805,1.263931,0.724106
15626312,23754,5232,5068,-21,17,4,0.391511,1.263932,0.724019
15641938,23682,5230,5142,-22,26,8,0.392866,1.263923,0.724285
15657564,23720,5246,5114,-20,28,10,0.394033,1.263801,0.723723
15673191,23704,5288,5172,-32,20,5,0.394737,1.263802,0.723636
15688816,23740,5178,5112,-41,17,3,0.397228,1.263746,0.723535
15704443,23778,5066,5084,-32,22,4,0.398633,1.263748,0.723361
15720076,23784,5098,5092,-23,28,3,0.400763,1.263676,0.722903
15735702,23706,5130,5094,-11,27,6,0.401191,1.263628,0.722624
15751329,23678,5204,5134,-7,20,6,0.401215,1.263552,0.722429
15766956,23734,5300,5146,-17,13,7,0.401215,1.263552,0.722429
15782583,23778,5244,5112,-30,17,7,0.402920,1.263561,0.723052
15798209,23744,5158,5058,-28,33,1,0.403942,1.263621,0.722716
15813835,23738,5194,5156,-17,44,1,0.406119,1.263431,0.722668
15829461,23914,5170,5294,5,82,-2,0.405444,1.262867,0.721722
15845087,23976,5382,5376,22,131,-16,0.403829,1.262177,0.720482
15860714,23782,5522,5140,15,164,-14,0.398113,1.259853,0.717346
15876340,23458,5366,4914,-57,156,-11,0.395212,1.258594,0.715295
15891967,23312,5116,5022,-120,107,-18,0.396853,1.256264,0.710502
15907593,23482,5144,5196,-112,84,-2,0.404083,1.255054,0.706601
15923218,23766,5248,5420,-101,116,13,0.406817,1.254462,0.704063
15938844,23396,5666,5142,-155,192,-35,0.410768,1.252391,0.697645
15954471,23074,5574,4852,-262,188,-71,0.414789,1.250497,0.694466
15970097,23118,4694,4680,-327,86,-34,0.431872,1.247226,0.688479
15985723,23508,3854,4920,-261,12,-28,0.443335,1.246953,0.685346
16001349,23786,3778,5316,-76,11,-23,0.461051,1.247730,0.681430
16016976,23582,4212,5280,113,42,6,0.463349,1.248145,0.680476
16032603,23390,4928,5112,217,46,26,0.452593,1.248625,0.680693
16048229,23352,5544,5076,218,21,36,0.443730,1.248869,0.682296
16063856,23668,5942,5378,104,47,21,0.427407,1.249305,0.687257
16079481,23844,5954,5344,-24,129,8,0.419472,1.248506,0.689017
16095107,23584,5792,5108,-125,218,-4,0.419073,1.247412,0.687406
16110734,23078,5344,4946,-228,242,-25,0.423463,1.243877,0.679475
16126359,22854,4976,5102,-288,188,-30,0.429007,1.242050,0.674621
16141986,23070,4702,5342,-241,148,-11,0.444475,1.239343,0.665179
16157612,23294,4568,5476,-168,182,-6,0.454071,1.237309,0.656286
16173238,23298,4482,4802,-143,233,-9,0.455922,1.235940,0.651589
16188864,22708,4470,4514,-103,216,-7,0.458663,1.233212,0.642384
16204491,22392,4486,4802,-75,124,-3,0.459444,1.232297,0.639185
16220116,22598,4502,5040,-53,49,-5,0.462152,1.231596,0.636226
16235743,22964,4562,5008,-5,42,-1,0.463214,1.231786,0.635819
16251369,23012,4646,4990,27,70,-2,0.462838,1.232102,0.636399
16266996,22846,4670,4982,23,75,-5,0.461433,1.232048,0.636415
16282622,22738,4766,5064,36,47,-5,0.458916,1.231907,0.636842
16298248,22884,4888,5006,36,20,-2,0.456260,1.232346,0.639065
16313874,23054,4868,5248,23,13,-3,0.455584,1.232764,0.640624
16329501,23230,4874,5332,26,35,2,0.454559,1.233390,0.642766
16345127,23216,4922,5114,25,73,4,0.453393,1.233464,0.643510
16360754,22990,5100,4958,30,100,11,0.450007,1.233195,0.643292
16376380,22782,5058,4894,-32,91,2,0.448115,1.232794,0.642890
16392007,22722,4982,5030,-67,52,-10,0.449174,1.232293,0.642448
16407634,22910,4878,5142,-55,26,-9,0.451221,1.232243,0.642339
16423261,23114,4836,5136,-48,42,-11,0.455159,1.232590,0.643035
16438887,22912,4704,4896,-23,74,-15,-3.141471,-3.141224,2.721654
16454513,22648,4682,4958,-1,65,-7,0.457533,1.232407,0.642915
16470138,22662,4698,5040,37,35,1,0.456440,1.232296,0.643485
16485763,22876,4828,5046,75,14,4,0.455194,1.232634,0.644567
16501389,22964,4968,5050,86,18,0,0.450350,1.233380,0.647655
16517016,22976,5078,5006,72,34,-2,0.447369,1.233684,0.649567
16532642,22872,5156,5040,50,45,-3,0.442663,1.233870,0.652543
16548269,22820,5096,5024,20,43,-4,0.440035,1.233929,0.654839
16563894,22782,5072,4972,6,28,-6,0.439153,1.233947,0.655740
16579521,22810,5014,5012,1,23,-7,0.439624,1.234326,0.658112
16595148,22784,5016,5112,-8,21,-10,0.439572,1.234474,0.659260
16610774,22824,4954,5088,-10,18,-12,0.440664,1.234778,0.660977
16626401,22828,4940,5024,12,12,-10,0.441209,1.234926,0.662040
16642026,22862,4942,4974,36,14,-5,0.441006,1.235483,0.664698
16657653,22862,5050,5058,53,16,-2,0.439738,1.235706,0.666197
16673280,22896,5170,5102,58,17,3,0.436251,1.236203,0.669136
16688906,22900,5148,5040,40,18,-3,0.432991,1.236749,0.672250
16704532,22938,5146,4972,18,23,-11,0.431707,1.236891,0.673586
16720158,22776,5160,5026,18,20,-8,0.431007,1.237150,0.676153
16735784,22738,5164,5044,27,9,0,0.430323,1.237291,0.677404
16751411,22822,5148,5070,26,-3,-4,0.429167,1.237780,0.680427
16767037,22990,5124,5072,9,-5,-18,0.428694,1.238126,0.682200
16782666,23056,5214,5096,11,7,-17,0.429336,1.238684,0.685559
16798293,23048,5272,4992,24,24,-9,0.429291,1.238789,0.687297
16813919,22902,5320,4998,24,32,3,0.427644,1.238938,0.689470
16829546,22936,5140,4980,-6,21,4,0.426291,1.239152,0.690996
16845172,22900,5052,5006,-7,15,-11,0.426774,1.239405,0.691695
16860799,22950,5092,5100,3,15,-25,0.427590,1.239634,0.693701
16876425,22836,5264,5170,31,17,-17,0.427846,1.239715,0.695030
16892052,22786,5288,4890,12,7,-5,0.426228,1.239746,0.697600
16907678,22804,5344,4900,27,-4,4,0.426381,1.240008,0.699133
16923305,22792,5336,4940,16,-7,6,0.425399,1.240691,0.702328
16938932,22870,5272,5120,17,-8,14,0.425276,1.241459,0.705055
16954559,22938,5272,5170,30,-8,1,0.424710,1.241909,0.706482
16970185,22982,5312,5094,39,-6,-5,0.423400,1.242491,0.709193
16985812,22992,5278,5104,17,-2,4,0.421989,1.242697,0.710744
17001438,22988,5142,5000,4,-2,10,0.421331,1.243287,0.712963
17017064,23040,5142,5066,26,7,4,0.421445,1.243670,0.713719
17032691,23082,5216,5132,70,16,-3,0.419526,1.244104,0.715757
17048317,23034,5266,5126,92,25,2,0.416185,1.244240,0.716978
17063943,23034,5336,5122,85,27,4,0.408884,1.244318,0.719713
17079570,23064,5280,5062,73,14,-7,0.402538,1.244339,0.722509
17095197,23118,5414,5112,95,10,-17,0.399484,1.244416,0.723882
17110823,23190,5526,5176,102,33,-18,0.392314,1.244369,0.728171
17126448,23148,5652,4998,86,62,-18,0.388459,1.244010,0.729847
17142076,23006,5656,4858,75,66,-8,0.380471,1.243211,0.732258
17157702,22910,5568,5020,39,42,-2,0.376994,1.242848,0.733092
17173329,23072,5452,5088,34,31,-3,0.373108,1.242488,0.734760
17188956,23166,5490,5040,40,59,-15,0.371738,1.242356,0.735731
17204582,23070,5578,5016,68,99,-19,0.366931,1.241493,0.736345
17220208,22862,5698,4976,86,97,-7,0.359104,1.240188,0.736776
17235834,22718,5518,4998,75,76,2,0.354242,1.239520,0.737198
17251461,22612,5446,5070,74,48,-8,0.346702,1.238772,0.737787
17267088,22794,5528,5064,121,28,-22,0.343446,1.238456,0.738795
17282714,22896,5812,5122,155,39,-28,0.333230,1.237979,0.743169
17298341,22974,6048,5058,131,66,-18,0.326772,1.237619,0.745902
17313966,22932,6178,4982,110,97,-5,0.315180,1.236381,0.748905
17329593,22754,6294,4838,96,108,0,0.309339,1.235654,0.749632
17345218,22614,6104,4938,26,91,8,0.299019,1.234036,0.750956
17360845,22564,5810,4996,-27,73,9,0.295438,1.232857,0.750483
17376471,22640,5774,5234,0,65,-2,0.295516,1.232555,0.749907
17392097,22670,5850,5144,50,57,-5,0.293572,1.231740,0.749613
17407723,22776,5968,5012,112,60,11,0.290425,1.231437,0.750201
17423350,22800,6070,4830,130,69,22,0.279481,1.230874,0.752165
17438976,22670,6070,4892,81,69,26,0.273193,1.230628,0.752962
17454602,22578,6142,4968,37,56,18,0.265550,1.230306,0.753757
17470227,22588,6310,5330,67,57,8,0.260235,1.229837,0.754793
17485853,22558,6472,5546,76,57,19,0.256968,1.229446,0.755603
17501479,22772,6460,5160,15,74,59,0.249807,1.228522,0.755975
17517105,22862,6396,4610,-13,108,63,0.247644,1.228333,0.754589
17532731,22648,6264,4412,-57,102,28,0.246199,1.227759,0.751661
17548357,22600,6086,4648,-93,63,29,0.247392,1.227439,0.750608
17563983,22732,6058,5578,-91,62,44,0.253361,1.227481,0.748565
17579610,23156,6432,6148,-86,152,62,0.255507,1.227227,0.746087
17595236,22568,6774,4900,-90,297,27,0.257466,1.224905,0.736081
17610863,21690,6680,4164,-169,205,-4,0.259720,1.220755,0.726536
17626490,21720,6034,4130,-246,47,53,0.265214,1.219432,0.724323
17642115,22340,5526,4698,-236,-17,70,0.281835,1.220418,0.720529
17657741,22858,5520,5420,-146,30,45,0.290365,1.221377,0.718566
17673368,22824,5780,5638,-44,102,36,0.298212,1.221910,0.714329
17688994,22342,5994,5212,19,118,57,0.297925,1.221422,0.712061
17704621,21922,5838,4518,-4,60,70,0.293354,1.220786,0.708200
17720247,22022,5566,4338,-44,-29,60,0.293504,1.222094,0.708180
17735874,22438,5522,4836,-7,-41,44,0.295248,1.223225,0.708893
17751501,22784,5810,5464,63,-8,27,0.294710,1.225197,0.711838
17767127,22730,6102,5384,89,31,40,0.292063,1.225467,0.713261
17782754,22404,6232,5492,58,39,60,0.283959,1.225720,0.714678
17798380,22322,6270,5252,-8,5,54,0.281270,1.225831,0.714655
17814006,22542,6242,4712,-61,-3,25,0.281412,1.226353,0.715299
17829632,22726,6090,4668,-119,9,8,0.283856,1.226618,0.716425
17845259,22780,5910,5146,-163,18,24,0.293834,1.227141,0.717271
17860886,22524,5810,5652,-124,23,36,0.305316,1.227566,0.715146
17876513,22318,5624,5092,-90,-3,43,0.308963,1.227674,0.713533
17892140,22392,5532,4836,-40,3,15,0.314741,1.228536,0.712672
17907765,22468,5726,5028,16,17,-12,0.316043,1.228809,0.713583
17923391,22640,5904,4976,3,11,-10,0.314966,1.228849,0.716713
17939016,22640,5856,5082,-37,21,1,0.315381,1.228947,0.718319
17954643,22628,5694,4954,-41,42,7,0.317990,1.229017,0.719662
17970269,22288,5826,4634,10,44,-6,0.319007,1.228960,0.719717
17985895,22284,5906,4894,20,21,-6,0.318399,1.228680,0.721496
18001521,22430,6000,5002,-5,24,-6,0.317016,1.228654,0.724854
18017147,22624,6154,5388,-80,52,-23,0.317331,1.228469,0.725767
18032774,22798,6252,5088,-135,113,-47,0.323587,1.227118,0.725779
18048400,22398,6282,4788,-147,156,-56,0.327999,1.225827,0.724711
18064026,22072,5890,4412,-188,94,-14,0.337239,1.223195,0.722183
18079652,22324,5330,4616,-201,48,21,0.344048,1.222763,0.720732
18095279,22660,4992,4946,-105,78,6,0.356977,1.223236,0.716726
18110905,22422,5158,5414,7,97,4,0.361438,1.223072,0.713173
18126531,22070,5614,6030,101,72,5,0.359639,1.222618,0.712164
18142158,21964,6092,5410,130,27,6,0.349943,1.221661,0.712663
18157784,22082,6124,4714,96,-16,6,0.345229,1.221433,0.714797
18173410,22542,5920,4604,40,-30,17,0.339648,1.222257,0.720998
18189036,22746,5804,4870,39,-9,16,0.338617,1.222837,0.723496
18204662,22644,5894,4858,55,19,16,0.335564,1.223872,0.727156
18220288,22336,6054,5214,58,61,27,0.333011,1.224058,0.728418
18235914,22096,5972,5116,44,55,23,0.327008,1.223887,0.729400
18251540,22118,5836,4922,9,15,12,0.322883,1.223630,0.730343
18267167,22250,5748,5076,-11,-6,5,0.322585,1.223836,0.731653
18282792,22400,5818,5162,0,-11,4,0.323791,1.224355,0.734049
18298418,22488,5870,4980,26,-7,7,0.323687,1.224606,0.735536
18314045,22470,5910,4986,52,9,9,0.321563,1.225194,0.738556
18329672,22336,6060,5308,72,25,12,0.319297,1.225318,0.739964
18345299,22240,6232,5274,70,4,15,0.313114,1.225278,0.742797
18360925,22330,6298,5146,8,-35,0,0.309613,1.225533,0.746950
18376550,22514,6258,4940,-37,-40,-5,0.310019,1.225799,0.749474
18392177,22638,6206,4886,-61,-21,2,0.314495,1.226433,0.753333
18407804,22628,6040,4920,-74,0,9,0.317034,1.226754,0.754669
18423430,22590,5936,4884,-62,22,11,0.322795,1.227184,0.755611
18439056,22366,5794,5024,-46,26,15,0.324992,1.227307,0.755704
18454682,22252,5722,5062,-20,3,14,0.327808,1.227550,0.755351
18470307,22332,5666,4992,4,-11,0,0.328315,1.227687,0.756021
18485934,22496,5932,4990,48,-16,-11,0.328380,1.228304,0.759013
18501561,22546,6180,5002,69,-6,-2,0.324830,1.228613,0.763390
18517187,22486,6356,5044,56,2,11,0.322338,1.228788,0.765400
18532813,22432,6404,5036,12,10,15,0.318386,1.228851,0.769064
18548440,22510,6302,4920,-38,14,5,0.317919,1.228848,0.769869
18564067,22584,6116,4938,-63,19,-2,0.321191,1.228725,0.771309
18579693,22522,6036,4932,-50,25,5,0.323490,1.228725,0.771763
18595319,22458,6052,4894,-28,24,11,0.326888,1.228590,0.772081
18610944,22454,6018,4908,-23,30,12,0.328124,1.228650,0.772490
18626571,22394,5958,5022,-27,24,12,0.328703,1.228634,0.772803
18642198,22402,5934,4954,-12,13,5,0.330051,1.228709,0.772811
18657823,22474,5952,4878,5,13,3,0.330457,1.228825,0.773891
18673449,22522,6046,4974,22,17,9,0.329504,1.228890,0.775684
18689076,22484,6216,5144,38,11,19,0.328291,1.229007,0.776224
18704703,22384,6372,5028,36,2,25,0.324694,1.229235,0.778197
18720330,22456,6378,4912,4,2,24,0.323495,1.229304,0.779274
18735957,22544,6216,5016,-47,11,14,0.323213,1.229591,0.781399
18751584,22528,6138,4994,-60,15,8,0.326527,1.229724,0.781732
18767211,22566,6122,5100,-45,16,4,0.326527,1.229724,0.781732
18782837,22532,6166,5004,-34,15,9,0.331915,1.229645,0.782372
18798463,22506,6188,5026,-39,12,12,0.333202,1.229629,0.782600
18814089,22520,6124,4940,-47,13,12,0.336197,1.229700,0.783153
18829714,22492,6064,5116,-48,15,9,0.338184,1.229684,0.783293
18845340,22540,6054,5072,-38,9,3,0.341532,1.229743,0.783442
18860966,22562,6100,4960,-24,0,5,0.343167,1.229739,0.783986
18876592,22610,6048,4902,-24,3,7,0.345277,1.229987,0.784866
18892219,22616,6128,4954,-38,19,-1,0.347669,1.230155,0.786281
18907846,22594,6120,5100,-42,31,-1,0.349310,1.230149,0.786826
18923471,22500,6068,5134,-39,28,9,0.351675,1.229777,0.786488
18939098,22434,5942,5142,-38,18,8,0.352780,1.229643,0.786345
18954723,22512,5992,5070,-32,11,-1,0.355242,1.229584,0.786213
18970349,22588,6026,4964,-20,14,-6,0.356882,1.229579,0.786757
18985976,22608,6084,5012,0,23,3,0.358111,1.229492,0.787920
19001602,22552,6098,5080,3,28,11,0.357346,1.229421,0.788944
19017227,22542,6058,5064,-11,30,10,0.357025,1.229359,0.789161
19032853,22462,6086,4902,-13,35,-4,0.357205,1.229181,0.788921
19048480,22456,6158,4944,-18,32,-6,0.357314,1.228933,0.789616
19064106,22544,6142,4894,-27,21,0,0.358527,1.228551,0.790165
19079733,22478,6164,4914,-31,27,3,0.359473,1.228544,0.790794
19095359,22454,6122,4958,-36,32,8,0.361291,1.228359,0.791094
19110985,22412,6086,5220,-27,29,14,0.362392,1.228226,0.790949
19126612,22490,6100,5154,-19,19,9,0.363580,1.228111,0.790404
19142238,22554,6186,4954,-22,13,2,0.364933,1.227970,0.790975
19157864,22572,6186,4866,-30,18,6,0.365881,1.227962,0.791603
19173490,22636,6114,4956,-40,28,9,0.368215,1.227956,0.792055
19189115,22458,6160,5086,-36,28,9,0.369280,1.227895,0.792096
19204741,22492,6172,5054,-40,23,9,0.371760,1.227763,0.791775
19220367,22544,6172,5004,-51,24,6,0.372823,1.227702,0.791816
19235993,22554,5998,4988,-70,28,3,0.376642,1.227645,0.791507
19251618,22568,5954,4974,-64,28,-6,0.382015,1.227339,0.790594
19267244,22538,5948,5010,-37,26,2,0.384071,1.227342,0.790332
19282870,22546,6010,5142,-8,27,14,0.385809,1.227282,0.790285
19298497,22470,6026,5068,-1,24,13,0.385841,1.227209,0.790098
19314124,22520,6024,5078,-12,13,4,0.385740,1.227262,0.790684
19329751,22536,6038,5048,-24,11,2,0.386077,1.227273,0.790998
19345377,22534,6042,4982,-24,18,3,0.387594,1.227371,0.791593
19361002,22558,6040,4840,-28,27,6,0.388648,1.227310,0.791633
19376628,22594,6006,5020,-33,28,-6,0.390287,1.227303,0.792172
19392253,22572,6098,5058,-20,20,-3,0.392442,1.227056,0.792595
19407879,22542,6122,5060,-20,22,6,0.393061,1.227037,0.792906
19423505,22480,6036,4960,-33,25,5,0.394479,1.226914,0.793073
19439132,22484,5976,4902,-38,28,-1,0.395529,1.226852,0.793113
19454757,22512,5998,4932,-23,23,-2,0.397626,1.226730,0.793192
19470383,22434,6036,5004,-2,16,-1,0.398248,1.226711,0.793503
19486010,22564,6094,5036,11,15,4,0.398432,1.226753,0.794801
19501636,22476,6162,5006,6,22,9,-1.200151,-2.670681,2.505997
19517263,22486,6178,4970,-4,21,8,0.396309,1.226749,0.796178
19532890,22446,6204,4932,-20,24,8,0.396298,1.226604,0.796917
19548516,22546,6164,4974,-40,23,8,0.397575,1.226657,0.797328
19564142,22584,6164,4984,-51,23,9,0.399995,1.226598,0.797191
19579768,22520,6076,5014,-52,25,7,0.401759,1.226465,0.796955
19595395,22494,6060,5034,-45,26,10,0.405169,1.226470,0.796517
19611021,22526,5996,4992,-38,23,14,0.406301,1.226357,0.795971
19626646,22532,5958,4986,-29,19,13,0.408552,1.226528,0.795552
19642273,22610,5902,4966,-20,20,10,0.410509,1.226729,0.795136
19657898,22586,5988,5136,-3,27,6,0.410743,1.226844,0.795508
19673524,22498,6054,5164,18,28,10,0.409799,1.226800,0.795411
19689151,22420,6176,4946,13,19,15,0.408836,1.226664,0.795525
19704778,22522,6140,4942,-13,12,10,0.407624,1.226828,0.796659
19720404,22580,6078,5018,-32,9,4,0.408222,1.226881,0.797157
19736030,22648,6116,4964,-30,12,1,0.410783,1.226987,0.797980
19751657,22566,6084,5002,-28,28,9,0.411799,1.226998,0.798207
19767283,22526,6080,5032,-29,32,9,0.413792,1.226980,0.798343
19782910,22462,6070,5122,-36,23,9,0.414915,1.226867,0.797795
19798537,22502,6040,4996,-38,11,7,0.416273,1.226869,0.797620
19814163,22566,6004,4884,-29,12,6,0.418910,1.226925,0.797856
19829790,22616,6028,5012,-19,23,5,0.419829,1.227040,0.798142
19845417,22486,6134,5070,-13,29,2,0.421112,1.227093,0.798554
19861044,22458,6238,5012,-14,19,10,0.421191,1.226895,0.798704
19876671,22542,6192,4972,-29,12,15,0.421524,1.226905,0.799019
19892298,22622,6044,4920,-42,17,8,0.424073,1.227064,0.799315
19907924,22638,6002,4922,-47,27,0,0.425397,1.227138,0.799329
19923549,22534,5970,4870,-35,36,5,0.428495,1.227008,0.798916
19939174,22504,5998,5022,-17,35,9,0.429170,1.227009,0.798828
19954801,22488,6028,5018,-5,29,5,0.429627,1.226824,0.798178
19970427,22502,6120,5106,-7,22,0,0.429314,1.226761,0.798391
19986053,22584,6146,5058,-15,19,1,0.429723,1.226572,0.798855
20001680,22544,6102,4994,-12,19,6,0.430019,1.226560,0.799567
20017305,22558,6088,5006,-8,23,5,0.430658,1.226540,0.799877
20032931,22494,6182,4986,-10,25,3,0.430676,1.226485,0.800404
20048557,22542,6216,5060,-23,20,2,0.430724,1.226359,0.800741
20064183,22584,6124,5014,-34,17,3,0.432760,1.226214,0.801213
20079809,22588,6122,5036,-39,20,6,0.434046,1.226266,0.801625
20095436,22526,6048,5028,-41,22,3,0.436739,1.226271,0.801274
20111061,22540,6076,5046,-38,19,3,0.438130,1.226146,0.801436
20126687,22538,6050,5010,-37,15,6,0.441100,1.226193,0.801271
20142313,22502,6088,5060,-29,8,3,0.443368,1.226310,0.801383
20157939,22602,6112,5046,-24,7,6,0.444655,1.226362,0.801795
20173566,22626,6102,5078,-26,10,9,0.446513,1.226591,0.802370
20189192,22594,6108,4958,-30,16,4,0.447512,1.226601,0.802597
20204818,22560,6064,5036,-41,20,3,0.449470,1.226654,0.802921
20220444,22646,6054,5084,-39,19,2,0.451458,1.226635,0.803057
20236076,22602,6032,5116,-28,16,3,0.453819,1.226576,0.802918
20251702,22590,6076,5018,-24,13,7,0.454486,1.226577,0.802831
20267329,22600,5966,5072,-37,10,1,0.457049,1.226735,0.803131
20282955,22584,5934,4968,-29,13,-5,0.459643,1.226861,0.803558
20298581,22538,5946,5050,-12,13,-1,0.460963,1.226841,0.803781
20314208,22480,6000,5042,8,12,7,0.461250,1.226898,0.804684
20329835,22518,6018,4982,22,8,6,0.460854,1.227010,0.805149
20345462,22562,6154,4984,23,4,2,0.459050,1.227239,0.806568
20361088,22624,6150,4944,4,2,7,0.458294,1.227334,0.807835
20376715,22682,6162,4914,-6,11,9,0.458178,1.227502,0.809205
20392341,22710,6092,4860,-17,17,6,0.458448,1.227614,0.809584
20407967,22696,6080,4832,-28,27,3,0.460021,1.227777,0.810379
20423594,22656,5994,4848,-29,37,5,0.461366,1.227779,0.810204
20439221,22636,5986,4844,-20,44,6,0.462067,1.227709,0.809925
20454846,22568,6022,4936,-7,47,4,0.462192,1.227486,0.809079
20470473,22576,6084,5392,14,44,4,0.461607,1.227309,0.808910
20486100,22506,6422,5720,42,45,-10,0.458576,1.226634,0.808200
20501726,22386,6778,5362,50,30,-14,0.455836,1.226015,0.808395
20517353,22484,6622,4834,-53,-12,14,0.452489,1.225132,0.810450
20532978,22702,6298,4898,-119,-8,7,0.457982,1.225396,0.811887
20548604,22802,6180,4924,-142,14,-3,0.463596,1.225494,0.811961
20564230,22728,5968,5126,-138,19,15,0.474538,1.225635,0.809828
20579855,22664,5936,5236,-109,18,26,0.479430,1.225836,0.808675
20595482,22538,5926,5240,-87,22,15,0.486597,1.226066,0.805349
20611109,22552,5894,5176,-88,14,-4,0.489531,1.226088,0.804201
20626736,22508,5866,5026,-97,-16,-10,0.496376,1.226071,0.803322
20642363,22680,5760,4828,-95,-49,1,0.500850,1.226304,0.803552
20657990,22756,5692,4942,-65,-53,10,0.510562,1.227504,0.804870
20673617,22540,5658,5284,11,-73,26,0.517356,1.228935,0.806690
20689242,22482,5618,5224,121,-125,48,0.517788,1.229954,0.808289
20704868,22618,5376,4946,135,-159,30,0.512906,1.232810,0.815200
20720494,22974,5394,4948,103,-150,-28,0.511590,1.234313,0.819764
20736120,23274,5714,5172,153,-117,-52,0.510776,1.236649,0.830080
20751747,23260,6184,5258,251,-77,-36,0.507233,1.237256,0.835460
20767373,23138,6474,5200,304,-59,-7,0.489916,1.237805,0.846241
20782999,22962,6656,4788,299,-46,7,0.466127,1.238380,0.856192
20798626,22984,6906,4608,218,-30,-12,0.454826,1.238565,0.861311
20814252,22952,7048,4606,98,3,-19,0.439411,1.238428,0.870097
20829879,22840,6992,4772,-17,30,-17,0.436392,1.238031,0.872437
20845506,22712,6822,5066,-92,28,-15,0.438345,1.236924,0.873484
20861133,22800,6706,5862,-114,26,-13,0.446900,1.235713,0.871581
20876759,22874,6786,5552,-70,28,-13,0.450317,1.234934,0.870269
20892386,22808,6640,5024,-70,16,3,0.452542,1.234288,0.869136
20908013,22866,6050,4658,-149,-7,4,0.458705,1.233818,0.867450
20923640,22908,5888,4774,-141,-18,-22,0.472393,1.234248,0.865842
20939266,23008,5902,5218,-72,-24,-31,0.478877,1.234296,0.865663
20954891,23010,6068,5636,46,-14,-12,0.484924,1.234419,0.866381
20970518,22952,6254,5380,146,-8,0,0.482038,1.234347,0.867253
20986144,22814,6396,5022,144,-23,0,0.469966,1.234270,0.870595
21001771,22856,6384,4606,78,-59,-11,0.464686,1.234404,0.872630
21017398,22866,6428,4794,38,-99,-23,0.462437,1.235205,0.879292
21033024,23196,6452,5328,67,-124,-3,0.464341,1.236410,0.887285
21048651,23442,6562,5566,134,-88,2,0.463814,1.236987,0.891169
21064278,23384,6674,5194,158,-37,-16,0.454298,1.237643,0.897264
21079905,23208,6764,4676,101,-11,-21,0.448310,1.237529,0.900236
21095532,23024,6704,4698,36,-25,-16,0.441464,1.237171,0.904528
21111158,23046,6748,4874,31,-53,-15,0.440828,1.237198,0.906576
21126784,23250,6974,5098,68,-55,-14,0.439790,1.237411,0.911304
21142411,23366,7044,5142,77,-23,0,0.437541,1.237358,0.914045
21158038,23224,6994,5094,45,21,17,0.431760,1.237102,0.916907
21173665,23024,6926,4922,18,20,13,0.426172,1.236522,0.916775
21189291,22968,6904,4862,-28,2,1,0.425129,1.236284,0.916745
21204917,23082,6864,4976,-77,-17,-5,0.428879,1.235878,0.916897
21220543,23222,6796,5138,-80,-18,6,0.433243,1.235780,0.916970
21236169,23302,6730,5108,-49,3,17,0.440464,1.235724,0.915971
21251796,23292,6858,4816,-35,16,22,0.442143,1.235696,0.915181
21267421,23240,6706,4934,-66,4,17,0.444735,1.235574,0.913478
21283048,23272,6574,4988,-106,-13,1,0.448271,1.235647,0.912933
21298675,23264,6468,5116,-99,-10,-2,0.458113,1.235663,0.911476
21314301,23306,6506,5346,-51,3,7,0.466389,1.235648,0.909580
21329927,23282,6644,5350,5,-3,9,0.467657,1.235583,0.908583
21345554,23354,6746,5166,22,-23,8,0.466920,1.235518,0.908459
21361179,23416,6792,4862,-1,-27,0,0.466487,1.235479,0.909269
21376805,23474,6786,4940,-41,-24,-4,0.468591,1.235638,0.911061
21392431,23478,6784,5174,-41,-21,1,0.471210,1.235706,0.911622
21408058,23636,6766,5316,-53,-6,6,0.475436,1.235672,0.911907
21423685,23696,6732,5098,-72,15,-5,0.480246,1.235416,0.910244
21439310,23518,6628,4850,-105,49,-16,0.483839,1.235120,0.909479
21454937,23368,6554,4982,-132,55,-12,0.491586,1.234134,0.905700
21470563,23246,6498,5004,-120,33,-6,0.496319,1.233709,0.903736
21486189,23308,6514,5124,-98,15,-8,0.505174,1.233197,0.900114
21501816,23366,6552,5010,-90,16,-5,0.508597,1.232933,0.898956
21517442,23352,6478,5046,-86,23,-7,0.516080,1.232615,0.896749
21533075,23486,6508,5080,-65,35,-13,0.518705,1.232350,0.895681
21548700,23498,6600,4944,-55,47,-9,0.523621,1.231725,0.893425
21564326,23320,6654,4730,-84,48,-9,0.526673,1.230956,0.891051
21579952,23200,6566,4952,-104,35,0,0.529972,1.230731,0.889790
21595579,23236,6414,5110,-91,35,11,0.536774,1.230342,0.886789
21611206,23298,6350,5172,-82,40,6,0.539266,1.230146,0.885220
21626832,23400,6352,4978,-67,50,3,0.543441,1.229752,0.881173
21642459,23368,6500,5018,-34,65,7,0.545190,1.229554,0.879697
21658086,23350,6516,5100,-45,65,14,0.545203,1.228946,0.876288
21673711,23232,6478,5096,-34,62,19,0.545523,1.228299,0.872604
21689337,23162,6406,4964,-38,61,26,0.545169,1.228059,0.870800
21704963,23080,6266,4932,-62,46,23,0.545729,1.227846,0.867118
21720589,23044,6170,4902,-80,29,15,0.547008,1.227911,0.865436
21736216,23082,6112,5006,-68,12,3,0.552367,1.228020,0.863113
21751842,23226,6238,5064,-21,9,5,0.555017,1.228160,0.862453
21767468,23228,6352,5062,7,14,16,0.555945,1.228431,0.862057
21783095,23232,6406,5070,-1,7,15,0.555243,1.228564,0.861833
21798722,23344,6464,5134,-7,-2,4,0.554864,1.228697,0.861923
21814349,23360,6428,5172,-16,-1,6,0.556233,1.228907,0.862636
21829975,23376,6342,4978,-36,2,9,0.556903,1.228909,0.862549
21845601,23416,6214,5050,-40,3,4,0.559898,1.229153,0.862288
21861228,23474,6324,5190,-15,3,-1,0.561174,1.229357,0.862004
21876854,23580,6516,5240,1,19,7,0.562540,1.229464,0.861915
21892480,23674,6694,5182,-11,52,16,0.561130,1.229217,0.860600
21908107,23548,6790,5202,-47,94,17,0.560478,1.228702,0.859108
21923733,23348,6648,4936,-120,103,9,0.561306,1.227422,0.853715
21939358,23286,6432,5024,-145,86,8,0.564229,1.226873,0.850806
21954983,23286,6256,5184,-141,72,11,0.571111,1.226006,0.845035
21970609,23266,6244,5282,-134,68,13,0.574855,1.225761,0.842332
21986235,23372,6248,5248,-99,85,27,0.580841,1.225188,0.836638
22001862,23370,6326,5138,-81,107,37,0.582166,1.224855,0.833424
22017489,23314,6312,4768,-110,113,40,0.582853,1.224134,0.826686
22033115,23184,6134,4710,-155,106,33,0.584715,1.223925,0.823082
22048741,23016,5960,4992,-159,95,16,0.591561,1.223453,0.816234
22064368,23076,6030,5344,-149,108,18,0.598213,1.222739,0.809653
22079994,23118,6238,5182,-141,142,47,0.600489,1.222273,0.805530
22095620,22870,6120,4672,-152,166,37,0.602897,1.221082,0.795764
22111247,22430,6070,4644,-168,122,-5,0.605049,1.220356,0.791231
22126874,22460,6076,4912,-191,52,-22,0.612966,1.219120,0.786443
22142501,22818,5834,4990,-233,24,-21,1.462801,-2.357044,-1.849747
22158128,22954,5688,4988,-211,34,-18,0.634065,1.218787,0.781604
22173753,22924,5736,4934,-78,34,8,1.551259,-0.327005,-0.060481
22189379,22880,5956,5048,-32,21,24,0.645914,1.219125,0.777808
22205005,22830,5940,5002,-63,6,24,0.648289,1.219770,0.777219
22220632,22952,5846,5024,-94,-1,14,0.650862,1.220122,0.776971
22236258,23116,5906,5096,-82,7,15,0.657434,1.220999,0.776200
22251884,23208,6034,4986,-53,28,19,0.659861,1.221374,0.775562
22267510,23160,6072,5054,-80,39,11,0.663060,1.221816,0.774627
22283136,23088,5992,5106,-117,42,9,0.665043,1.221776,0.773696
22298763,23178,5926,5076,-106,50,18,0.670917,1.221798,0.771237
22314389,23106,5650,5046,-174,53,0,0.676830,1.221836,0.767988
22330015,22958,5442,5048,-225,41,-23,0.681426,1.221749,0.765644
22345642,22884,5434,5034,-197,23,-23,0.694836,1.221638,0.761889
22361268,22848,5378,5026,-163,9,-11,0.700290,1.221717,0.760407
22376895,22974,5184,5084,-136,-3,-16,0.710716,1.222337,0.758478
22392521,23076,5166,5076,-80,16,-31,0.715354,1.222710,0.758184
22408147,23046,5310,5104,-72,48,-34,0.720724,1.222951,0.757739
22423773,22966,5470,4980,-64,61,-25,0.722267,1.222775,0.756831
22439399,22874,5600,4972,-44,46,-22,0.724803,1.222405,0.755895
22455025,22920,5716,5106,-56,24,-17,0.727008,1.222155,0.755814
22470652,22996,5776,5114,-96,22,-12,0.729080,1.222214,0.756044
22486279,23046,5640,5120,-143,38,-18,0.735565,1.222255,0.755170
22501904,23010,5528,5150,-155,55,-18,0.739319,1.222203,0.754283
22517530,22896,5374,4986,-152,53,-2,0.746861,1.221858,0.750886
22533156,22698,5298,4970,-138,44,8,0.753243,1.222030,0.747039
22548782,22640,5232,5020,-107,12,8,0.756744,1.222341,0.745938
22564409,22790,5132,5168,-91,-19,1,0.763384,1.223355,0.744629
22580035,22926,5166,4994,-69,-11,2,0.766749,1.223963,0.744628
22595662,22858,5214,4972,-62,-8,4,0.772183,1.225059,0.744433
22611289,22802,5190,5068,-66,-13,1,0.774684,1.225622,0.744341
22626914,22830,5222,5158,-83,-26,-3,0.780540,1.226778,0.745054
22642541,23030,5160,5100,-83,-17,-7,0.784124,1.227325,0.745188
22658168,23120,5260,5074,-66,28,-4,0.789582,1.228183,0.744884
22673795,22924,5214,4950,-89,50,-10,0.791697,1.228363,0.744379
22689421,22702,5218,5042,-132,13,-22,0.795738,1.228394,0.742386
22705047,22940,5084,5246,-126,-18,-18,0.803742,1.228763,0.741393
22720673,23396,5052,5322,-72,6,-10,0.808129,1.229117,0.741505
22736299,23296,5168,5238,-47,64,-1,0.811787,1.229560,0.739968
22751925,22896,5054,5286,-83,72,5,0.811940,1.229455,0.738293
22767552,22666,4868,5442,-104,44,1,0.813462,1.229213,0.734412
22783178,22818,5156,5380,-133,46,-1,0.817816,1.229232,0.730392
22798804,23100,4866,4672,-201,97,-49,0.821209,1.228950,0.728175
22814430,23224,4536,4166,-83,129,-38,0.826365,1.227628,0.723834
22830056,22962,4674,4946,-30,110,-2,0.826692,1.227384,0.722109
22845683,22744,4996,5398,-27,60,-22,0.824893,1.227067,0.718686
22861309,22812,5250,5234,-10,1,-35,0.825090,1.226820,0.718171
22876935,23038,5194,5106,-35,7,-35,0.827828,1.227095,0.720745
22892560,22816,5044,4958,-45,41,-9,0.829868,1.227138,0.721377
22908186,22490,4940,4960,-29,36,8,0.831180,1.227335,0.720556
22923811,22408,4978,4898,-16,-15,-4,0.831707,1.227599,0.720098
22939438,22702,5100,4994,29,-74,3,0.835351,1.228923,0.722670
22955065,22952,5236,5086,49,-61,18,0.839108,1.230963,0.727150
22970691,22966,5196,5048,0,-42,20,0.839974,1.231996,0.729182
22986317,22908,5220,4944,-64,-44,12,0.843837,1.233573,0.731453
23001943,23000,5158,4882,-107,-61,17,0.847216,1.234431,0.731912
23017569,23134,4982,4924,-143,-73,14,0.857166,1.236558,0.733016
23033195,23408,4978,4938,-162,-68,4,0.869157,1.238692,0.733298
23048822,23320,4974,5032,-165,-52,3,0.874998,1.239671,0.733320
23064448,22982,4826,5236,-203,-42,-5,0.881016,1.240517,0.733279
23080076,22846,4552,5200,-219,-61,-19,0.892708,1.241806,0.731571
23095702,22944,4320,5062,-186,-90,-24,0.906497,1.243337,0.730308
23111328,23142,4182,4996,-97,-114,-16,0.912907,1.244433,0.730662
23126955,23292,4212,5108,-14,-126,-5,0.923734,1.247209,0.733863
23142581,23404,4378,5170,43,-128,-4,0.927759,1.248704,0.736119
23158208,23490,4678,4968,101,-120,8,0.933374,1.251611,0.742305
23173834,23358,5186,5014,141,-100,37,0.934463,1.253040,0.745473
23189461,23252,5538,5140,88,-85,37,0.934568,1.255533,0.752098
23205088,23290,5434,5104,-72,-95,13,0.938807,1.257342,0.756891
23220715,23530,5292,5070,-151,-99,17,0.943994,1.258257,0.758617
23236342,23570,5042,5118,-199,-77,27,0.955917,1.260178,0.759764
23251967,23482,4564,5132,-208,-49,12,0.962062,1.261110,0.758689
23267594,23404,4394,5116,-158,-32,-1,0.972909,1.262486,0.755687
23283220,23346,4394,5086,-140,-35,-6,0.976839,1.262992,0.754597
23298846,23444,4428,5162,-123,-58,6,0.984563,1.264307,0.752430
23314472,23622,4372,5152,-89,-67,8,0.988397,1.265054,0.751939
23330098,23774,4428,5066,-51,-52,4,0.995270,1.266814,0.752125
23345724,23810,4444,5172,-32,-20,5,0.999652,1.268106,0.752089
23361350,23630,4502,5196,-15,-5,10,1.000645,1.268681,0.751472
23376976,23500,4442,5112,-9,-22,12,1.001605,1.269320,0.750258
23392603,23650,4394,4944,24,-39,11,1.002160,1.269825,0.749953
23408229,23666,4652,5014,62,-36,17,1.003528,1.271222,0.751237
23423854,23676,4956,5276,45,-19,22,1.002755,1.272324,0.752589
23439480,23676,5084,5206,-11,-5,23,1.002909,1.272561,0.752747
23455107,23714,4914,4996,-95,9,8,1.004189,1.272902,0.751421
23470734,23742,4614,4948,-134,27,-4,1.005958,1.272915,0.750071
23486360,23592,4284,5184,-128,29,-5,1.010281,1.272910,0.746349
23501987,23604,4218,5206,-91,12,2,1.011296,1.272903,0.743876
23517612,23706,4334,5032,-35,2,14,1.013551,1.273337,0.740224
23533238,23720,4504,5102,-3,17,13,1.014062,1.273603,0.739293
23548864,23598,4594,5168,1,25,10,1.012966,1.273967,0.737114
23564491,23626,4626,5046,-4,8,13,1.012290,1.274048,0.736144
23580116,23754,4658,4964,-27,5,7,1.012353,1.274441,0.735373
23595743,23766,4622,5098,-46,17,10,1.013756,1.274818,0.734329
23611368,23744,4582,5144,-63,30,13,1.014068,1.274974,0.732860
23626995,23620,4586,5176,-77,34,5,1.015156,1.274889,0.729687
23642621,23644,4588,5162,-86,26,3,1.015421,1.274803,0.727612
23658247,23630,4426,5018,-74,12,10,1.017209,1.274729,0.724643
23673872,23714,4386,5060,-50,11,10,1.018257,1.274998,0.723523
23689498,23772,4388,5058,-40,20,7,1.019660,1.275326,0.721240
23705124,23688,4420,5204,-28,19,7,1.020144,1.275589,0.720291
23720751,23700,4390,5156,-30,17,5,1.020193,1.275758,0.717898
23736377,23706,4412,5088,-29,19,6,1.020471,1.275840,0.716193
23752003,23690,4398,5090,-21,21,5,1.020355,1.275923,0.715039
23767630,23682,4474,5108,-9,21,8,1.020323,1.276197,0.713252
23783256,23696,4590,5166,-6,15,10,1.020285,1.276255,0.712635
23798882,23786,4584,5064,-12,14,7,1.019898,1.276403,0.711789
23814508,23752,4596,5152,-27,24,3,1.020055,1.276488,0.710545
23830135,23688,4528,5076,-34,26,8,1.020444,1.276486,0.709994
23845762,23632,4482,4990,-25,21,11,1.020243,1.276451,0.707847
23861389,23696,4432,5096,-14,19,7,1.020596,1.276646,0.707125
23877016,23698,4488,5096,-19,22,2,1.020478,1.276726,0.705966
23892642,23690,4460,5180,-22,20,0,1.020710,1.276786,0.705259
23908268,23710,4510,5172,-14,12,7,1.020744,1.276804,0.704254
23923895,23788,4554,5122,-10,11,12,1.020978,1.276933,0.703771
23939520,23822,4522,5122,-14,22,5,1.021175,1.277189,0.702890
23955146,23712,4482,5018,-22,31,0,1.020821,1.277139,0.702212
23970772,23634,4482,5062,-17,25,0,1.020852,1.277086,0.700982
23986398,23622,4570,5170,-18,20,1,1.020769,1.277039,0.700218
24002024,23694,4570,5096,-17,14,7,1.021150,1.277036,0.699666
24017650,23812,4546,5046,-19,16,3,1.021497,1.277230,0.698938
24033276,23798,4504,4948,-20,22,2,1.021765,1.277233,0.698851
24048902,23686,4564,5048,-20,23,4,1.021643,1.277311,0.697688
24064528,23668,4624,5164,-19,17,9,1.022137,1.277373,0.696892
24080155,23716,4634,5150,-25,13,6,1.022519,1.277441,0.696562
24095782,23724,4584,5112,-29,17,2,1.023162,1.277442,0.695923
24111409,23696,4500,5076,-42,23,2,1.023542,1.277509,0.695593
24127036,23752,4456,5014,-49,27,-4,1.024245,1.277400,0.694347
24142663,23690,4498,5080,-45,20,-6,1.025033,1.277340,0.693865
24158290,23738,4510,5224,-38,12,0,1.026306,1.277411,0.692809
24173916,23774,4550,5182,-28,15,-3,1.026826,1.277348,0.692414
24189542,23770,4558,5088,-34,22,-5,1.027606,1.277287,0.691932
24205168,23704,4500,5056,-48,29,-6,1.028902,1.277233,0.691277
24220794,23664,4454,5176,-53,21,-3,1.029212,1.277056,0.690363
24236420,23770,4426,5190,-46,12,1,1.030716,1.277131,0.689221
24252046,23848,4452,5106,-34,11,-1,1.031335,1.277131,0.688582
24267672,23782,4474,5088,-41,20,-5,1.032777,1.277315,0.688044
24283298,23712,4436,4998,-53,33,-6,1.033283,1.277251,0.687649
24298924,23690,4380,5086,-46,35,-5,1.034336,1.277014,0.686255
24314549,23674,4390,5158,-28,18,3,1.034488,1.276968,0.685407
24330175,23784,4402,5134,-10,5,4,1.035056,1.277093,0.684365
24345802,23826,4536,4998,-22,27,-2,1.035732,1.277409,0.684529
24361429,23758,4468,4986,-39,41,0,1.036086,1.277406,0.683976
24377055,23636,4448,5216,-41,37,3,1.036161,1.277044,0.682326
24392682,23650,4430,5166,-38,23,7,1.036307,1.276998,0.681478
24408309,23730,4336,5122,-34,15,6,1.036658,1.277009,0.679919
24423936,23772,4310,4986,-16,20,4,1.037115,1.277140,0.679342
24439562,23720,4414,5100,1,29,8,1.037285,1.277392,0.678446
24455188,23648,4552,5138,-3,26,12,1.037138,1.277381,0.678066
24470815,23776,4586,5196,-28,8,8,1.036641,1.277388,0.677231
24486441,23850,4504,5064,-44,11,6,1.038049,1.277643,0.676908
24502067,23800,4402,5028,-47,29,6,1.038645,1.277714,0.676489
24517693,23680,4374,5170,-38,38,4,1.039683,1.277773,0.675049
24533320,23674,4402,5144,-28,29,6,1.039570,1.277651,0.674067
24548947,23710,4454,5166,-26,19,5,1.039804,1.277596,0.672752
24564572,23758,4452,5164,-23,21,6,1.040150,1.277664,0.672419
24580197,23774,4458,5138,-12,27,12,1.040142,1.277676,0.671410
24595822,23704,4404,5088,-9,36,10,1.039607,1.277805,0.670166
24611448,23654,4452,5062,-19,36,-2,1.039255,1.277751,0.669491
24627076,23666,4482,5160,-14,22,6,1.039181,1.277505,0.668920
24642702,23728,4554,5228,-3,12,15,1.039283,1.277568,0.668672
24658329,23848,4572,5126,-9,19,11,1.039105,1.277823,0.668321
24673956,23810,4442,4992,-40,39,-1,1.039207,1.277886,0.668073
24689583,23628,4368,5066,-49,50,-2,1.039856,1.277579,0.667024
24705209,23532,4352,5226,-32,38,6,1.039979,1.277387,0.665740
24720835,23740,4414,5074,16,5,19,1.039517,1.277280,0.664307
24736462,23872,4496,5052,22,7,14,1.039273,1.277841,0.664360
24752089,23836,4558,4960,3,30,8,1.039342,1.278016,0.664709
24767715,23710,4648,5142,-13,42,6,1.039100,1.278012,0.664796
24783341,23648,4646,5112,-23,33,9,1.038340,1.277787,0.664326
24798968,23584,4570,5094,-33,20,10,1.038816,1.277650,0.663716
24814594,23722,4404,5084,-45,20,4,1.039158,1.277717,0.663381
24830220,23726,4360,5102,-48,30,5,1.040457,1.277726,0.662482
24845845,23694,4290,5172,-30,36,9,1.040891,1.277783,0.661679
24861472,23710,4388,5156,14,25,13,1.040522,1.277666,0.659779
24877098,23766,4522,4976,27,20,14,1.039416,1.277794,0.659171
24892723,23758,4616,5034,16,24,12,1.039387,1.277906,0.659767
24908349,23618,4618,5128,-12,33,10,1.038770,1.278031,0.659995
24923976,23602,4612,5118,-34,35,11,1.038560,1.277915,0.659485
24939602,23584,4532,5092,-38,21,15,1.038826,1.277734,0.658584
24955228,23752,4520,5056,-29,5,22,1.039165,1.277801,0.658248
24970855,23870,4536,5066,-30,7,18,1.040659,1.278416,0.657596
24986481,23820,4486,5126,-41,35,6,1.042016,1.278600,0.657042
25002106,23706,4488,5124,-22,38,10,1.042040,1.278487,0.656445
25017733,23616,4452,5112,-14,30,9,1.041917,1.278290,0.655249
25033359,23612,4500,5128,-15,21,10,1.041570,1.278305,0.654793
25048985,23752,4530,5016,-7,19,13,1.041667,1.278368,0.654543
25064612,23710,4596,5088,-7,27,6,1.042112,1.278415,0.654748
25080238,23686,4560,5168,-12,30,3,1.042251,1.278356,0.654913
25095864,23672,4498,5086,-15,23,6,1.042251,1.278356,0.654913
25111490,23762,4530,4952,-9,21,9,1.042483,1.278287,0.654608
25127117,23614,4502,5126,-17,31,5,1.042723,1.278363,0.654740
25142744,23596,4528,5102,-18,26,8,1.042954,1.278295,0.654436
25158369,23632,4570,5162,-12,5,14,1.043052,1.278357,0.654185
25173994,23886,4654,5078,-23,-1,9,1.043735,1.278480,0.654522
25189621,23930,4558,5036,-48,20,0,1.045648,1.278909,0.655370
25205247,23632,4508,5164,-61,41,-2,1.046249,1.278784,0.655143
25220874,23514,4358,5250,-50,30,2,1.047326,1.278482,0.653929
25236500,23682,4372,5126,-7,-2,6,1.048012,1.278349,0.653234
25252126,23840,4460,4994,8,0,6,1.048653,1.278666,0.653374
25267753,23870,4560,5038,9,19,6,1.049634,1.279152,0.654787
25283379,23668,4582,5148,3,31,5,1.049408,1.279221,0.655093
25299005,23612,4658,5246,-9,20,8,1.049214,1.279023,0.655375
25314632,23698,4650,5024,-12,10,10,1.049350,1.278964,0.655539
25330258,23780,4558,5034,-22,17,5,1.050035,1.279158,0.656097
25345884,23674,4568,5096,-36,27,2,1.050709,1.279209,0.656217
25361510,23762,4524,5140,-30,15,9,1.051532,1.279088,0.655903
25377135,23792,4572,5154,-22,12,7,1.052663,1.279146,0.655851
25392761,23764,4570,5084,-22,22,3,1.052897,1.279222,0.655983
25408387,23718,4512,5136,-27,32,2,1.053792,1.279204,0.655798
25424013,23646,4490,5170,-30,26,5,1.053707,1.279029,0.655450
25439639,23708,4448,5166,-19,10,9,1.054251,1.279027,0.654808
25455266,23790,4564,5074,-3,3,9,1.054925,1.279150,0.655147
25470893,23812,4646,5064,-5,17,7,1.055691,1.279520,0.656055
25486519,23670,4720,5188,-31,33,6,1.056135,1.279567,0.656262
25502144,23660,4618,5150,-39,20,4,1.056311,1.279201,0.656021
25517770,23754,4490,5060,-41,16,2,1.057255,1.279093,0.656090
25533396,23762,4462,5124,-34,26,4,1.058239,1.279210,0.655874
25549022,23756,4432,5106,-18,25,4,1.058907,1.279149,0.655396
25564648,23774,4526,5030,-5,14,5,1.058902,1.279077,0.655177
25580275,23828,4660,5114,-1,10,8,1.059354,1.279268,0.655822
25595901,23834,4672,5158,-19,20,6,1.059801,1.279387,0.656249
25611526,23790,4658,5178,-38,31,0,1.060731,1.279319,0.656697
25627153,23786,4514,5120,-41,26,0,1.061212,1.279020,0.656119
25642779,23708,4484,5086,-34,24,-1,1.061783,1.278896,0.655890
25658406,23658,4420,5174,-17,21,0,1.062352,1.278772,0.655661
25674032,23666,4492,5108,2,16,4,1.063014,1.278822,0.655782
25689658,23704,4630,5022,8,11,7,1.062798,1.278891,0.656087
25705284,23792,4706,5068,-14,15,3,1.063159,1.279018,0.656983
25720910,23750,4628,5134,-45,22,-1,1.064440,1.279005,0.658107
25736536,23724,4594,5144,-54,21,1,1.065006,1.278881,0.657877
25752163,23790,4530,5058,-47,18,5,1.066757,1.278878,0.657346
25767790,23780,4484,5086,-45,29,2,1.067840,1.278824,0.656695
25783416,23692,4404,5168,-37,27,0,1.068269,1.278760,0.656302
25799042,23716,4498,5136,-16,17,8,1.069000,1.278762,0.655574
25814668,23788,4504,5050,-8,15,7,1.069660,1.278885,0.655915
25830294,23740,4534,5086,-8,21,7,1.070105,1.279003,0.656342
25845920,23750,4594,5180,-10,20,9,1.070192,1.279067,0.656093
25861546,23756,4614,5118,-10,12,9,1.070192,1.279067,0.656093
25877172,23900,4600,5104,-21,19,4,1.070851,1.279189,0.656434
25892798,23830,4548,5084,-30,32,4,1.071424,1.279248,0.657025
25908423,23748,4510,5108,-32,37,3,1.071746,1.279009,0.656281
25924049,23678,4542,5184,-30,34,2,1.071955,1.278941,0.655975
25939675,23858,4192,5466,-15,33,3,1.072056,1.278627,0.655098
25955302,24058,3734,5630,41,75,-10,1.071383,1.278393,0.654159
25970927,23966,3630,5374,150,110,3,1.065687,1.277365,0.651247
25986553,23892,4120,4950,310,125,25,1.060518,1.276812,0.649936
26002179,23506,5328,4888,391,128,19,1.045616,1.275709,0.650591
26017806,23258,5836,5068,285,105,28,1.029703,1.274044,0.655793
26033433,23474,6076,4992,159,86,28,1.029703,1.274044,0.655793
26049059,23572,6140,4884,38,99,19,1.016556,1.271569,0.661411
26064686,23670,5902,4958,-130,136,0,1.014713,1.270703,0.661588
26080313,23392,5388,4996,-286,176,-7,1.015066,1.268056,0.657825
26095940,23172,4882,5170,-346,170,-7,1.016734,1.266572,0.653041
26111566,23248,4584,5258,-320,143,3,1.020497,1.263868,0.641982
26127193,23462,4288,5354,-200,134,27,1.022336,1.262932,0.636693
26142820,23376,4154,4938,-136,150,19,1.023067,1.261421,0.626658
26158447,23180,4110,4798,-110,137,6,1.020999,1.259926,0.618822
26174076,22948,3950,4946,-57,89,-1,1.020416,1.259347,0.615849
26189702,22966,3932,5184,18,45,-1,1.019703,1.258897,0.612925
26205328,23162,3912,5204,132,26,10,1.019107,1.258946,0.612939
26220954,23412,4270,5260,244,48,7,1.014270,1.259391,0.615182
26236580,23506,4844,5068,327,92,8,1.010037,1.259328,0.617622
26252206,23206,5306,4920,258,127,-21,0.997556,1.258294,0.623031
26267832,23030,5380,5052,150,83,-30,0.987568,1.256455,0.629034
26283458,23304,5248,5054,66,36,-30,0.985077,1.255663,0.632006
26299084,23554,5036,5060,49,40,-35,0.984073,1.255015,0.637252
26314709,23606,5074,5174,69,69,-33,0.983615,1.254646,0.639551
26330335,23602,5192,5204,77,109,-19,0.980571,1.253546,0.642733
26345962,23340,5280,4906,79,141,-8,0.977973,1.252668,0.643224
26361587,23010,5344,4828,79,119,-2,0.970948,1.250690,0.643632
26377212,22930,5370,5028,58,60,1,0.968173,1.250020,0.644367
26392838,23208,5428,5162,45,31,3,0.966609,1.249514,0.647362
26408465,23226,5384,4986,26,63,5,0.965269,1.249278,0.650273
26424092,23102,5316,4950,3,79,9,0.964252,1.248848,0.651066
26439719,22928,5144,5038,-15,66,12,0.962807,1.248223,0.651283
26455345,22886,5024,5010,-12,41,9,0.962542,1.248044,0.651051
26470972,23028,5074,4940,11,15,6,0.962730,1.248115,0.652093
26486598,23140,5114,5152,35,4,4,0.963339,1.248232,0.653319
26502225,23194,5174,5056,55,13,8,0.963571,1.248736,0.656476
26517851,23104,5184,5130,57,23,10,0.962956,1.249152,0.659704
26533478,23164,5144,5110,62,24,11,0.962296,1.249210,0.661010
26549104,23084,5126,5040,71,20,3,0.960682,1.249396,0.663908
26564729,23044,5130,4996,78,10,-4,0.959888,1.249465,0.665646
26580355,23064,5250,5104,111,-3,-4,0.958999,1.249877,0.670257
26595982,23112,5450,5220,130,-6,3,0.957914,1.249993,0.672791
26611607,23228,5484,5152,120,-2,6,0.955260,1.250402,0.678711
26627233,23264,5484,5032,92,4,1,0.954134,1.250514,0.681250
26642860,23262,5578,5020,87,12,-4,0.952886,1.250787,0.686349
26658486,23220,5638,4972,81,23,-1,0.950763,1.250770,0.691241
26674112,23214,5646,4950,65,29,3,0.949753,1.250694,0.693015
26689738,23096,5668,5140,58,26,-1,0.948326,1.250526,0.696894
26705365,23018,5636,5018,21,16,-9,0.947777,1.250391,0.698720
26720990,23086,5550,5146,29,8,-12,0.948045,1.250103,0.702098
26736616,23188,5586,5070,63,9,-11,0.948245,1.250085,0.704230
26752243,23288,5602,5030,60,28,-5,0.947084,1.249983,0.708217
26767869,23154,5684,4980,62,53,2,1.536641,-0.318368,-0.068730
26783495,23032,5590,4922,47,45,-9,0.943223,1.249203,0.712307
26799121,22982,5604,5194,54,26,-14,0.941162,1.248622,0.714933
26814747,23102,5596,5168,93,13,-12,0.940251,1.248407,0.716626
26830373,23236,5768,5044,135,26,-11,0.937289,1.248113,0.721106
26845999,23336,5918,4978,128,48,-3,0.934897,1.247889,0.723570
26861625,23278,5924,4940,66,59,5,0.929799,1.247218,0.727517
26877251,23156,5942,4956,43,69,0,0.928076,1.246908,0.728383
26892878,23102,5924,4900,34,71,-12,0.924384,1.245845,0.729795
26908504,23154,5888,4926,14,71,-22,0.921835,1.244703,0.731576
26924129,23162,5904,5148,21,70,-19,0.920991,1.244069,0.732341
26939756,23150,5860,5048,64,87,-2,0.918138,1.242809,0.733290
26955382,23054,5816,4968,55,93,6,0.914989,1.242205,0.733662
26971009,22922,5908,4980,49,89,6,0.909938,1.241096,0.733453
26986636,22942,5934,4940,66,85,-4,0.907563,1.240538,0.733932
27002261,22938,6006,5072,75,79,-8,0.902282,1.239352,0.735192
27017886,22966,6132,5066,88,73,1,0.899725,1.238729,0.735887
27033512,22950,6052,5090,69,67,6,0.893949,1.237656,0.738123
27049139,22904,6046,5194,79,53,9,0.888975,1.236782,0.739619
27064765,22914,6254,5470,108,49,6,0.886854,1.236509,0.740828
27080392,23016,6480,5264,94,60,-2,0.880813,1.235608,0.743398
27096019,23106,6370,4688,38,78,-16,0.877826,1.234925,0.744709
27111645,22918,6278,4860,-60,81,-17,0.875775,1.233633,0.747081
27127271,22820,6146,5292,-75,84,0,0.876557,1.233005,0.747053
27142898,22684,6188,5324,12,69,18,0.876343,1.231793,0.744916
27158524,22768,6340,5222,47,65,33,0.872570,1.230898,0.744234
27174150,22784,6380,5060,66,65,33,0.870673,1.230646,0.744536
27189776,22742,6362,4960,16,56,30,0.865664,1.230164,0.745325
27205403,22854,6270,4910,-27,40,24,0.865322,1.229963,0.745553
27221030,23028,6166,5002,-27,37,24,0.865730,1.229838,0.745803
27236656,23180,6256,5144,10,57,37,0.865904,1.229903,0.745591
27252282,23072,6406,5218,57,97,42,0.862710,1.229622,0.745077
27267908,22872,6460,4942,10,113,41,0.859345,1.229133,0.744387
27283534,22692,6292,4536,-67,111,39,0.854799,1.228094,0.741950
27299160,22502,6192,4838,-99,86,30,0.854770,1.227323,0.738642
27314786,22554,6062,5048,-100,40,33,0.855444,1.227037,0.737348
27330413,22746,6068,5364,-64,27,36,0.859159,1.227249,0.735611
27346039,22838,6282,5788,38,63,34,0.859711,1.227245,0.735119
27361665,22720,6472,5090,61,76,50,0.854783,1.226591,0.734066
27377292,22618,6360,4868,-2,65,51,0.852246,1.226358,0.734070
27392919,22616,6264,4464,-57,50,19,0.850816,1.226188,0.733284
27408545,22752,6224,5010,-90,43,17,0.854807,1.226156,0.734087
27424171,22838,6232,5238,-58,56,38,0.856318,1.226096,0.733547
27439797,22738,6338,5482,-10,72,48,0.856150,1.225818,0.731636
27455423,22658,6330,5158,-22,73,49,0.854683,1.225537,0.730393
27471050,22506,6322,4822,-39,87,39,0.852804,1.225069,0.728591
27486676,22416,6112,4540,-79,74,31,0.852346,1.224771,0.727572
27502302,22442,6024,4820,-90,45,33,0.854349,1.224595,0.726087
27517928,22606,6066,5182,-40,33,28,0.856226,1.224776,0.725580
27533554,22704,6402,5404,48,55,28,0.856964,1.224854,0.725596
27549180,22660,6558,5206,43,71,40,0.853047,1.224285,0.726441
27564807,22510,6420,4768,-41,59,38,0.850920,1.223982,0.726176
27580433,22474,6236,4828,-106,26,11,0.852282,1.223732,0.726188
27596059,22658,6134,4812,-115,16,2,0.855186,1.223844,0.726426
27611686,22818,6104,4974,-90,41,14,0.861334,1.224069,0.726818
27627312,22722,6210,5234,-35,71,33,0.862639,1.223945,0.726491
27642939,22472,6328,5270,-29,74,46,0.861920,1.223597,0.724894
27658566,22280,6114,4660,-101,40,29,0.861454,1.223299,0.723880
27674192,22378,5996,4560,-125,25,10,0.864338,1.223378,0.722657
27689819,22526,5988,4982,-104,36,8,0.870541,1.223670,0.722833
27705445,22560,6110,5336,-37,42,30,0.872751,1.223728,0.722578
27721076,22482,6242,5388,8,38,49,0.872855,1.223609,0.721720
27736702,22508,6318,5010,-3,36,39,0.872304,1.223667,0.721682
27752328,22502,6268,4636,-67,49,11,0.871976,1.223611,0.722295
27767955,22512,6082,4716,-114,47,6,0.873695,1.223476,0.722675
27783580,22534,5914,5204,-100,41,26,0.878631,1.223463,0.722012
27799206,22594,6080,5658,-47,49,30,0.881762,1.223474,0.720513
27814832,22582,6232,5054,-19,50,19,0.881277,1.223176,0.719499
27830458,22506,6184,4650,-63,48,14,0.881852,1.222921,0.719684
27846084,22518,5990,4604,-108,42,24,0.883350,1.222847,0.719938
27861709,22638,5752,4826,-139,51,24,0.888119,1.223159,0.718791
27877336,22600,5686,5222,-116,70,15,0.890641,1.223300,0.717444
27892962,22416,5668,5312,-38,70,16,0.892759,1.222898,0.714565
27908588,22292,5832,5094,68,32,36,0.892262,1.222672,0.713744
27924215,22440,5920,4982,68,6,32,0.889170,1.222911,0.714567
27939841,22644,5914,4834,33,5,10,0.887784,1.223504,0.717916
27955468,22780,6006,4950,12,21,-6,0.888195,1.223849,0.719599
27971095,22716,6030,5062,6,44,1,0.889129,1.223858,0.722474
27986722,22428,6132,5336,21,59,13,0.889081,1.223778,0.723479
28002349,22088,6332,5844,44,30,20,0.886604,1.223155,0.724179
28017975,21880,6626,5978,54,-52,26,0.885432,1.223026,0.725175
28033602,22278,6360,4908,-15,-139,20,0.886992,1.223618,0.730174
28049228,23188,5752,4202,-119,-91,-17,0.898919,1.226166,0.738057
28064854,23448,5674,4504,-76,0,-19,0.905221,1.227199,0.740859
28080480,23176,5810,4716,1,78,2,0.910064,1.227897,0.742941
28096107,22526,5922,5006,40,119,23,0.909135,1.227646,0.742660
28111734,21998,6026,5298,41,109,22,0.902950,1.226597,0.740645
28127360,21868,6202,5302,34,47,1,0.899902,1.225880,0.740141
28142987,22222,6264,5098,9,-17,-12,0.898320,1.225152,0.742036
28158614,22640,6308,5248,-3,-36,-3,0.899511,1.225236,0.744234
28174240,22780,6312,5090,10,-7,20,0.902899,1.225745,0.748662
28189867,22684,6286,5108,-14,20,15,0.904402,1.226234,0.751267
28205493,22528,6314,5106,-21,28,8,0.905057,1.226153,0.752098
28221119,22450,6382,4894,-31,12,13,0.905740,1.225942,0.753254
28236745,22528,6200,4832,-85,0,8,0.907342,1.225970,0.753976
28252372,22714,6014,4778,-109,23,-4,0.912864,1.226288,0.755358
28267998,22686,5898,4874,-87,45,5,0.915651,1.226322,0.755417
28283624,22560,5844,5142,-40,46,14,0.918387,1.226209,0.754326
28299251,22422,6094,5266,20,34,6,0.917512,1.225989,0.753559
28314877,22392,6252,5172,21,15,4,0.917045,1.225790,0.754178
28330503,22448,6284,4916,2,-2,7,0.917266,1.225654,0.756771
28346130,22546,6116,4754,-30,-3,5,0.917827,1.225809,0.758148
28361757,22658,6046,4746,-39,13,-3,0.921547,1.226215,0.760845
28377382,22622,6112,4940,-6,34,5,0.922955,1.226373,0.761649
28393008,22440,6208,5224,28,39,19,0.922928,1.226282,0.762650
28408634,22318,6364,5192,18,19,16,0.921933,1.226141,0.763234
28424261,22418,6302,4780,-35,6,1,0.921586,1.225984,0.764842
28439888,22548,6110,4762,-56,12,-9,0.925254,1.226079,0.767195
28455514,22688,6130,4834,-46,21,-6,0.927037,1.226038,0.768036
28471141,22584,6162,5038,-29,34,12,0.929336,1.226005,0.769104
28486766,22422,6178,5252,-9,30,26,0.930122,1.226048,0.769206
28502393,22330,6218,5172,-4,10,21,0.929340,1.225936,0.768905
28518020,22444,6166,4940,-28,-16,7,0.929963,1.226049,0.769609
28533647,22708,6166,4876,-45,-18,-3,0.933523,1.226507,0.772207
28549274,22818,6220,4916,-37,17,0,0.935720,1.226772,0.773320
28564900,22600,6234,4954,-42,41,12,0.938910,1.226883,0.774973
28580525,22460,6238,5056,-45,42,9,0.939945,1.226624,0.774628
28596150,22410,6196,5028,-59,26,6,0.940189,1.226392,0.774380
28611777,22482,6112,4910,-69,6,2,0.943136,1.226226,0.774874
28627402,22612,6034,4942,-55,5,6,0.945205,1.226317,0.775310
28643029,22686,5964,4964,-36,23,12,0.948346,1.226723,0.775848
28658655,22672,6036,4988,-24,37,8,0.948850,1.226662,0.775876
28674281,22456,6144,5016,-27,33,1,0.949356,1.226533,0.775703
28689907,22498,6092,4900,-44,23,-3,0.950513,1.226314,0.776352
28705533,22642,6044,4910,-61,23,-7,0.951643,1.226227,0.776685
28721159,22688,5988,4988,-51,31,-7,0.954867,1.226063,0.777089
28736785,22676,6036,5040,-23,36,-2,0.955538,1.225937,0.777230
28752411,22566,6218,5178,1,41,1,0.955741,1.225672,0.777458
28768038,22428,6230,5100,-6,36,13,0.955621,1.225403,0.777772
28783665,22480,6050,4922,-41,29,14,0.955198,1.225164,0.777694
28799290,22604,6042,4982,-54,29,-6,0.955842,1.225171,0.777520
28814916,22642,6044,4934,-43,33,-10,0.958573,1.224936,0.778207
28830543,22592,6084,5078,-21,34,1,0.959731,1.224681,0.778171
28846169,22464,6168,5184,-8,32,9,0.959757,1.224548,0.778484
28861796,22434,6162,5076,-19,24,14,0.959785,1.224347,0.778596
28877422,22452,6112,5034,-40,17,8,0.960409,1.224321,0.778900
28893049,22544,6030,4966,-53,12,-3,0.962606,1.224346,0.779446
28908674,22638,6000,5048,-37,14,-2,0.965110,1.224443,0.780107
28924299,22650,6006,5044,-11,18,8,0.965875,1.224552,0.780412
28939924,22562,6144,4996,6,21,14,0.966630,1.224695,0.781396
28955549,22536,6096,4932,-10,21,9,0.966313,1.224759,0.781685
28971175,22490,5992,4906,-37,14,-1,0.967384,1.224905,0.782583
28986801,22544,5950,5076,-41,13,-6,0.968944,1.224922,0.783305
29002427,22514,6048,5116,-16,14,2,0.971128,1.224946,0.783853
29018052,22396,6098,5032,10,7,12,0.971437,1.224983,0.784446
29033679,22450,6232,4996,8,-3,13,0.971710,1.225321,0.785815
29049305,22678,6324,5092,-32,-3,9,0.972470,1.225529,0.787006
29064932,22870,6324,5112,-90,33,10,0.975567,1.225694,0.788145
29080558,22702,6218,4982,-112,66,11,0.978077,1.225422,0.786671
29096185,22428,6038,4890,-115,66,7,0.979023,1.225100,0.784953
29111811,22368,5868,5004,-98,42,10,0.981341,1.224558,0.781916
29127437,22508,5780,5048,-62,23,14,0.982696,1.224507,0.780966
29143064,22528,5770,5174,-19,18,13,0.984452,1.224796,0.779823
29158691,22586,5874,5054,15,10,13,0.984574,1.225098,0.780195
29174318,22702,6018,5046,27,16,10,0.985011,1.225370,0.780959
29189943,22580,6042,4976,7,29,5,3.141593,-3.141593,2.627302
29205570,22482,6020,4910,8,24,14,0.984140,1.225393,0.782616
29221196,22492,6008,5008,14,18,16,0.984275,1.225661,0.783469
29236822,22506,6122,5040,19,23,8,0.983665,1.225788,0.784049
29252449,22436,6288,5088,7,25,0,0.983396,1.225683,0.785127
29268077,22472,6136,4990,-18,13,6,0.983430,1.225582,0.786118
29283704,22554,6136,5002,-36,3,9,0.984831,1.225595,0.787244
29299330,22640,6040,4918,-36,7,12,0.987408,1.225856,0.787883
29314956,22630,5966,4862,-8,24,8,0.988138,1.226165,0.788088
29330582,22538,5974,5012,9,22,6,0.988912,1.226238,0.788877
29346208,22530,6004,5000,15,17,8,0.988607,1.226301,0.789168
29361834,22490,6096,5020,11,17,2,0.988633,1.226431,0.790739
29377459,22434,6164,5070,12,18,-7,0.988811,1.226397,0.791532
29393086,22476,6292,5036,18,10,-6,0.988731,1.226156,0.793232
29408712,22526,6398,5124,12,1,8,0.989088,1.226020,0.794613
29424338,22666,6420,5040,2,-1,18,0.989735,1.226186,0.796693
29439964,22658,6328,4894,-41,19,12,0.990191,1.226355,0.797298
29455591,22634,6148,4936,-69,28,7,0.992049,1.226371,0.797938
29471217,22578,6036,5040,-64,29,2,0.994030,1.226260,0.797320
29486843,22586,6032,5024,-59,31,5,0.995098,1.226139,0.796963
29502470,22510,5964,5168,-48,27,11,0.996740,1.226094,0.795921
29518096,22520,5990,5086,-36,12,14,0.997476,1.226104,0.795346
29533722,22620,6018,5060,-25,2,7,0.998963,1.226288,0.795289
29549348,22778,6090,4962,-12,7,0,0.999718,1.226395,0.795602
29564973,22756,6174,5006,-10,19,3,1.001254,1.226638,0.796914
29580599,22606,6208,5004,-21,39,11,1.001278,1.226503,0.797219
29596226,22506,6160,5126,-26,38,9,1.001576,1.226440,0.796926
29611853,22468,6102,5028,-35,20,3,1.001734,1.226143,0.796451
29627480,22592,6158,5080,-47,6,-2,1.002188,1.226081,0.796473
29643107,22688,6138,5006,-54,11,-2,1.005219,1.226074,0.797242
29658733,22720,6012,4898,-53,20,1,1.006421,1.226119,0.797578
29674359,22730,5972,5068,-39,29,1,1.008494,1.226108,0.797446
29689985,22578,6066,5012,-18,34,1,1.009076,1.226049,0.797067
29705612,22504,6114,4952,-11,24,5,1.009235,1.225917,0.796969
29721239,22578,6066,4998,-21,14,4,1.009873,1.225818,0.797782
29736866,22654,6032,4960,-27,15,-2,1.010621,1.225925,0.798097
29752492,22622,6070,4966,-27,20,-6,1.012141,1.225935,0.798823
29768118,22552,6154,5012,-21,25,-1,1.012582,1.225939,0.799050
29783744,22468,6214,5142,-26,25,7,1.013509,1.225777,0.799569
29799371,22574,6260,5106,-55,23,13,1.013953,1.225649,0.799384
29814997,22630,6222,5036,-82,37,8,1.015672,1.225540,0.798450
29830623,22638,6048,4950,-88,44,-1,1.017795,1.225137,0.796951
29846249,22638,5964,5052,-77,34,2,1.018749,1.224988,0.795910
29861876,22652,5884,5024,-50,26,13,1.020841,1.224886,0.794490
29877503,22632,5874,4938,-24,33,15,1.021374,1.225029,0.794014
29893129,22520,5830,4964,-15,37,11,1.021299,1.225135,0.793029
29908755,22424,5938,5088,-8,28,5,1.021426,1.225205,0.792833
29924382,22556,6008,5070,3,15,2,1.021299,1.225135,0.793029
29940009,22676,6096,5028,14,10,4,1.021171,1.225132,0.793429
29955636,22744,6150,4994,10,20,6,1.021854,1.225363,0.794999
29971261,22698,6196,4992,-4,33,5,1.021776,1.225322,0.795876
29986887,22618,6138,5092,-14,38,10,1.021649,1.225252,0.796071
30002513,22598,6114,5136,-22,34,10,1.021344,1.225084,0.795778
30018139,22514,6036,5154,-24,26,5,1.021497,1.224952,0.795680
30033764,22566,6094,5048,-23,20,3,1.022054,1.224959,0.795506
30049389,22672,6064,4910,-28,19,0,1.022356,1.224827,0.795722
30065015,22690,6046,4906,-25,29,-4,1.023975,1.224908,0.796250
30080641,22602,6012,5026,-15,40,6,1.024276,1.224776,0.796465
30096266,22492,6070,5040,-3,47,6,1.023970,1.224608,0.796172
30111892,22370,6104,5102,10,36,4,1.023113,1.224366,0.795848
30127519,22464,6196,5042,8,18,7,1.022404,1.224124,0.795837
30143146,22548,6216,5020,-4,8,9,1.022783,1.224185,0.797111
30158773,22654,6226,4890,-22,18,6,1.023237,1.224353,0.797717
30174398,22598,6164,4906,-38,30,5,1.024272,1.224327,0.798244
30190024,22554,6088,4948,-44,37,8,1.025159,1.224235,0.798253
30205650,22444,6098,4952,-42,34,6,1.025810,1.224082,0.797299
30221275,22580,6016,5090,-35,30,3,1.026786,1.223962,0.796940
30236901,22610,5994,5030,-27,31,3,1.027211,1.223834,0.796754
30252528,22592,6012,4928,-17,33,4,1.027759,1.223842,0.796580
30268155,22568,6056,4928,-9,37,2,1.027910,1.223710,0.796482
30283782,22540,6114,4816,-5,44,1,1.027477,1.223538,0.796588
30299408,22568,6120,4880,-10,49,1,1.027229,1.223332,0.796769
30315034,22618,6060,4998,-11,52,8,1.026799,1.223028,0.796465
30330660,22456,6112,5166,-2,46,4,1.026220,1.222856,0.796260
30346285,22440,6268,5474,-6,30,-7,1.025063,1.222446,0.795645
30361912,22440,6426,5352,-15,15,-1,1.024683,1.221870,0.795942
30377539,22554,6380,5020,-44,1,8,1.024855,1.221668,0.796346
30393165,22632,6260,4930,-90,1,7,1.028211,1.221828,0.797702
30408791,22708,6154,4904,-121,18,-1,1.030604,1.222055,0.797666
30424417,22756,6050,5030,-124,36,-8,1.034829,1.222015,0.796234
30440043,22670,5954,5044,-100,50,-9,1.036431,1.221841,0.795098
30455669,22498,5896,5126,-83,47,0,1.038769,1.221449,0.793119
30471295,22434,5884,5036,-73,21,-5,1.040226,1.221149,0.791136
30486922,22480,5858,4970,-58,11,-8,1.041716,1.221201,0.790981
