gravity_test
Module: E0:5A:1B:76:51:80 (05)
t(us),ax,ay,az,gx,gy,gz,y,p,r
1,32767,19414,6266,-23,-45,-10,0.000036,0.012450,0.013796
15626,32767,19448,6248,-24,-45,-10,-0.002196,0.092024,0.058324
31252,32767,19448,6298,-25,-44,-10,-0.003003,0.107638,0.067110
46877,32767,19434,6310,-24,-44,-9,-0.005035,0.138753,0.084809
62504,32767,19450,6272,-25,-45,-9,-0.006254,0.154119,0.093722
78130,32767,19416,6328,-24,-45,-10,-0.009076,0.184606,0.111338
93756,32767,19464,6304,-24,-45,-9,-0.010555,0.199598,0.120184
109381,32767,19456,6238,-24,-44,-10,-0.014143,0.229345,0.137798
125007,32767,19454,6270,-25,-45,-11,-0.014143,0.229345,0.137798
140633,32767,19434,6272,-25,-44,-8,-0.020187,0.272952,0.164162
156259,32767,19418,6298,-24,-44,-9,-0.024864,0.301321,0.181799
171884,32767,19428,6226,-23,-44,-9,-0.027414,0.315210,0.190483
187511,32767,19424,6254,-24,-44,-9,-0.032654,0.342688,0.208160
203137,32767,19470,6282,-24,-45,-10,-0.035544,0.356190,0.216859
218763,32767,19412,6260,-23,-45,-8,-0.041448,0.382672,0.234601
234389,32767,19446,6234,-24,-44,-10,-0.044529,0.395653,0.243357
250019,32767,19392,6264,-24,-44,-9,-0.054438,0.433699,0.269857
265645,32767,19394,6310,-24,-44,-9,-0.057916,0.445941,0.278640
281271,32767,19380,6288,-25,-44,-9,-0.061497,0.458159,0.287400
296897,32767,19404,6290,-24,-45,-10,-0.068802,0.481806,0.305113
312524,32767,19402,6238,-24,-44,-9,-0.072681,0.493527,0.313946
328150,32767,19388,6288,-24,-44,-8,-0.080497,0.516133,0.331635
343776,32767,19408,6270,-24,-44,-10,-0.084603,0.527185,0.340490
359403,32767,19412,6338,-25,-44,-9,-0.092926,0.548791,0.358184
375029,32767,19418,6326,-24,-44,-9,-0.101543,0.569708,0.375879
390655,32767,19424,6322,-24,-45,-10,-0.105877,0.579823,0.384752
406281,32767,19406,6236,-24,-44,-9,-0.114940,0.599680,0.402530
421908,32767,19416,6336,-24,-44,-9,-0.119644,0.609310,0.411415
437534,32767,19440,6286,-24,-46,-11,-0.128913,0.628073,0.429132
453161,32767,19410,6312,-24,-44,-8,-0.133661,0.637137,0.438071
468788,32767,19426,6232,-24,-44,-9,-0.143371,0.654873,0.455615
484415,32767,19438,6304,-24,-44,-10,-0.148312,0.663515,0.464577
500041,32767,19414,6290,-25,-44,-9,-0.163323,0.688293,0.490859
515668,32767,19426,6326,-23,-44,-9,-0.168420,0.696169,0.499730
531294,32767,19410,6314,-24,-45,-9,-0.173490,0.704010,0.508393
546920,32767,19438,6306,-25,-44,-9,-0.183802,0.719024,0.525928
562546,32767,19404,6300,-24,-45,-10,-0.188924,0.726315,0.534491
578172,32767,19436,6322,-24,-45,-10,-0.199441,0.740492,0.551912
593799,32767,19438,6308,-24,-44,-9,-0.204647,0.747283,0.560395
609425,32767,19416,6270,-25,-45,-9,-0.215295,0.760534,0.577622
625051,32767,19414,6320,-25,-45,-9,-0.225991,0.773244,0.594649
640677,32767,19394,6306,-24,-44,-9,-0.231353,0.779324,0.603146
656303,32767,19460,6352,-24,-44,-10,-0.241990,0.791168,0.619815
671930,32767,19442,6268,-24,-45,-10,-0.247472,0.796849,0.628350
687557,32767,19452,6320,-25,-43,-10,-0.258045,0.807853,0.644920
703191,32767,19350,6302,-25,-45,-9,-0.263417,0.813095,0.653201
718816,32767,19412,6250,-24,-45,-10,-0.274186,0.823361,0.669502
734441,32767,19442,6274,-25,-45,-8,-0.284977,0.833209,0.685659
750066,32767,19386,6246,-24,-45,-9,-0.284977,0.833209,0.685659
765693,32767,19384,6286,-23,-45,-11,-0.295677,0.842605,0.701584
781320,32767,19412,6232,-23,-44,-9,-0.306157,0.851452,0.717323
796947,32767,19430,6188,-24,-45,-9,-0.316805,0.859913,0.732939
812572,32767,19432,6296,-24,-45,-9,-0.322066,0.863966,0.740589
828199,32767,19414,6294,-25,-44,-9,-0.332435,0.871830,0.755891
843829,32767,19420,6306,-24,-45,-9,-0.337597,0.875634,0.763265
859455,32767,19440,6336,-25,-45,-9,-0.347796,0.882749,0.778025
875081,32767,19444,6270,-24,-46,-11,-0.357881,0.889724,0.792591
890707,32767,19458,6316,-24,-44,-9,-0.362875,0.892967,0.799724
906334,32767,19408,6324,-24,-45,-9,-0.372823,0.899361,0.814081
921960,32767,19424,6268,-25,-44,-10,-0.377838,0.902515,0.821023
937587,32767,19478,6252,-24,-45,-10,-0.387489,0.908354,0.834600
953213,32767,19398,6230,-25,-45,-10,-0.392432,0.911210,0.841477
968840,32767,19408,6280,-24,-44,-8,-0.401837,0.916625,0.854816
984465,32767,19428,6324,-24,-46,-10,-0.411301,0.921829,0.867894
1012209,32767,19398,6258,-24,-44,-9,-0.411301,0.921829,0.867894
1027836,32767,19416,6282,-25,-44,-10,-0.429366,0.931383,0.893106
1043463,32767,19424,6360,-23,-44,-10,-0.433884,0.933614,0.899277
1059089,32767,19430,6256,-25,-45,-8,-0.442416,0.937762,0.911283
1074715,32767,19392,6254,-24,-44,-9,-0.451208,0.941942,0.923222
1090342,32767,19424,6252,-24,-44,-9,-0.455345,0.943845,0.928823
1105969,32767,19446,6250,-25,-44,-10,-0.463610,0.947628,0.940265
1121596,32767,19450,6306,-24,-45,-10,-0.467624,0.949361,0.945767
1137223,32767,19392,6216,-25,-45,-9,-0.479495,0.954474,0.961966
1152849,32767,19472,6284,-24,-46,-10,-0.483528,0.956112,0.967341
1168476,32767,19406,6298,-24,-44,-10,-0.487255,0.957639,0.972690
1184103,32767,19404,6304,-25,-45,-9,-0.494735,0.960681,0.982759
1199729,32767,19442,6310,-25,-44,-8,-0.498547,0.962115,0.987790
1215356,32767,19396,6260,-25,-45,-10,-0.505681,0.964870,0.997603
1230982,32767,19430,6286,-24,-44,-9,-0.509287,0.966205,1.002345
1246609,32767,19432,6280,-24,-44,-10,-0.516194,0.968778,1.011657
1262236,32767,19426,6270,-25,-44,-9,-0.522869,0.971132,1.020756
1277862,32767,19452,6294,-24,-44,-9,-0.526299,0.972354,1.025232
1293488,32767,19452,6310,-24,-45,-8,3.141349,-0.000244,-0.000122
1309115,32767,19422,6310,-25,-45,-9,-0.536011,0.975706,1.038204
1324740,32767,19388,6272,-24,-45,-9,-0.542023,0.977639,1.046447
1340365,32767,19398,6280,-24,-45,-9,-0.545075,0.978719,1.050533
1355990,32767,19452,6308,-24,-46,-10,-0.551051,0.980616,1.058434
1371616,32767,19460,6288,-24,-45,-10,-0.553930,0.981524,1.062507
1387243,32767,19432,6300,-24,-45,-10,-0.562427,0.984148,1.073693
1402869,32767,19434,6268,-25,-44,-10,-0.565039,0.984840,1.077474
1418495,32767,19430,6268,-24,-45,-9,-0.567792,0.985651,1.081074
1434121,32767,19414,6234,-24,-45,-9,-0.573094,0.987285,1.088039
1449748,32767,19454,6296,-25,-44,-9,-0.575613,0.987973,1.091433
1465373,32767,19474,6274,-25,-44,-10,-0.580652,0.989389,1.098107
1480998,32767,19442,6336,-24,-45,-9,-0.583013,0.990048,1.101436
1496624,32767,19424,6282,-23,-46,-11,-0.587621,0.991301,1.107789
1512250,32767,19428,6310,-25,-44,-10,-0.592236,0.992473,1.114097
1527876,32767,19444,6296,-25,-45,-9,-0.594499,0.993134,1.117036
1543503,32767,19402,6278,-25,-44,-9,-0.598797,0.994281,1.122826
1559129,32767,19472,6242,-25,-45,-10,-0.600830,0.994768,1.125676
1574755,32767,19418,6262,-24,-44,-10,-0.604929,0.995805,1.131297
1590381,32767,19442,6320,-24,-45,-10,-0.606897,0.996266,1.133912
1606006,32767,19432,6348,-25,-44,-9,-0.610916,0.997252,1.139270
1621632,32767,19444,6338,-24,-43,-10,-0.612735,0.997750,1.141880
1637258,32767,19374,6276,-24,-44,-9,-0.618034,0.998948,1.149319
1652884,32767,19426,6326,-25,-43,-9,-0.619792,0.999423,1.151696
1668509,32767,19396,6226,-24,-44,-10,-0.621495,0.999822,1.153961
1684136,32767,19392,6218,-25,-44,-10,-0.625005,1.000621,1.158750
1699762,32767,19420,6334,-24,-44,-10,-0.626488,1.000988,1.160889
1715387,32767,19476,6298,-24,-44,-9,-0.629547,1.001665,1.165355
1731014,32767,19416,6244,-24,-44,-10,-0.630958,1.002016,1.167254
1746639,32767,19412,6324,-24,-44,-10,-0.634209,1.002750,1.171693
1762266,32767,19466,6232,-24,-44,-10,-0.637091,1.003373,1.175638
1777892,32767,19450,6304,-24,-45,-9,-0.638391,1.003576,1.177721
1793518,32767,19408,6274,-24,-45,-9,-0.641055,1.004163,1.181542
1809145,32767,19408,6290,-25,-45,-9,-0.642259,1.004475,1.183322
1824772,32767,19398,6352,-24,-43,-9,-0.644862,1.005045,1.186905
1840397,32767,19414,6328,-24,-44,-9,-0.646076,1.005351,1.188690
1856024,32767,19428,6318,-25,-44,-10,-0.648392,1.005820,1.192025
1871649,32767,19392,6278,-26,-45,-10,-0.649555,1.006051,1.193695
1887275,32767,19398,6198,-25,-44,-10,-0.652944,1.006796,1.198746
1902901,32767,19438,6258,-24,-46,-9,-0.653806,1.006931,1.200159
1918527,32767,19398,6266,-24,-45,-8,-0.654985,1.007155,1.201836
1934153,32767,19498,6302,-23,-44,-9,-0.657079,1.007642,1.204926
1949779,32767,19484,6356,-25,-45,-9,-0.657929,1.007838,1.206216
1965406,32767,19390,6294,-25,-44,-10,-0.659977,1.008249,1.209191
1981033,32767,19426,6262,-25,-43,-10,-0.660856,1.008376,1.210611
1996660,32767,19424,6196,-25,-44,-10,-0.662579,1.008758,1.213202
2024242,32767,19398,6292,-24,-44,-10,-0.662579,1.008758,1.213202
2039869,32767,19414,6268,-24,-44,-10,-0.665814,1.009423,1.218377
2055495,32767,19430,6304,-24,-44,-10,-0.667079,1.009630,1.220749
2071122,32767,19436,6264,-24,-43,-10,-0.667695,1.009794,1.221908
2086749,32767,19352,6298,-24,-45,-10,-0.669131,1.010071,1.224246
2102376,32767,19394,6294,-25,-45,-9,-0.669933,1.010252,1.225301
2118003,32767,19428,6246,-26,-44,-9,-0.671117,1.010505,1.227500
2133629,32767,19438,6304,-25,-43,-9,-0.672552,1.010840,1.229721
2149256,32767,19420,6270,-25,-44,-9,-0.672552,1.010840,1.229721
2164882,32767,19402,6302,-24,-44,-9,-0.674233,1.011178,1.232716
2180508,32767,19460,6222,-25,-45,-8,-0.674783,1.011333,1.233633
2196135,32767,19434,6276,-24,-45,-9,-0.675907,1.011576,1.235592
2211762,32767,19464,6262,-24,-44,-10,-0.676211,1.011644,1.236489
2227388,32767,19438,6322,-25,-45,-9,-0.677279,1.011818,1.238324
2243013,32767,19408,6224,-25,-44,-10,-0.677899,1.011962,1.239927
2258640,32767,19422,6276,-24,-45,-10,-0.678207,1.012028,1.240826
2274266,32767,19430,6286,-24,-45,-9,-0.678995,1.012245,1.242397
2289892,32767,19448,6304,-23,-45,-9,-0.679578,1.012327,1.243441
2305518,32767,19484,6270,-25,-44,-10,-0.680308,1.012477,1.244887
2321144,32767,19418,6276,-23,-45,-9,-0.680537,1.012543,1.245538
2336771,32767,19452,6230,-24,-45,-9,-0.681080,1.012669,1.247090
2352398,32767,19426,6306,-25,-44,-9,-0.681882,1.012879,1.248666
2368024,32767,19406,6298,-25,-44,-10,-0.682115,1.012943,1.249318
2383651,32767,19410,6320,-24,-45,-10,-0.682561,1.013137,1.250503
2399278,32767,19444,6320,-25,-44,-9,-0.682630,1.013123,1.251188
2414905,32767,19428,6308,-24,-45,-10,-0.683034,1.013184,1.252365
2430530,32767,19436,6248,-25,-45,-9,-0.683434,1.013322,1.252986
2446157,32767,19456,6318,-24,-44,-10,-0.683442,1.013419,1.254059
2461784,32767,19468,6224,-25,-45,-9,-0.683678,1.013480,1.254713
2477411,32767,19436,6296,-24,-45,-10,-0.684151,1.013600,1.256020
2493037,32767,19408,6350,-24,-45,-9,-0.684261,1.013708,1.256934
2508663,32767,19428,6300,-25,-44,-9,-0.684261,1.013708,1.256934
2524290,32767,19406,6296,-25,-45,-10,-0.684610,1.013873,1.258503
2539916,32767,19410,6280,-24,-44,-11,-0.684784,1.013868,1.259028
2555542,32767,19428,6224,-25,-45,-8,-0.684981,1.013968,1.260192
2571169,32767,19418,6220,-24,-45,-9,-0.685136,1.014031,1.260599
2586794,32767,19424,6330,-26,-45,-10,-0.685313,1.014197,1.261645
2602420,32767,19436,6270,-24,-45,-10,-0.685360,1.014237,1.262432
2618047,32767,19470,6252,-23,-45,-10,-0.685602,1.014293,1.263088
2633673,32767,19446,6236,-24,-45,-9,-0.685715,1.014394,1.264005
2649300,32767,19446,6248,-25,-46,-9,-0.685606,1.014371,1.264384
2664925,32767,19444,6286,-25,-45,-10,-0.685719,1.014471,1.265302
2680551,32767,19390,6252,-24,-45,-10,-0.685589,1.014516,1.265563
2696178,32767,19394,6250,-25,-44,-10,-0.685636,1.014553,1.266351
2711804,32767,19430,6234,-25,-44,-9,-0.685504,1.014598,1.266612
2727430,32767,19420,6310,-25,-44,-10,-0.685328,1.014681,1.267384
2743056,32767,19424,6316,-24,-45,-9,-0.685374,1.014716,1.268172
2772014,32767,19402,6278,-24,-43,-10,-0.685374,1.014716,1.268172
2787639,32767,19464,6330,-24,-45,-9,-0.684862,1.014824,1.269338
2803266,32767,19440,6294,-25,-45,-9,-0.684615,1.014842,1.269979
2818892,32767,19412,6262,-24,-45,-9,-0.684480,1.014886,1.270241
2834519,32767,19448,6274,-25,-44,-10,-0.684231,1.014903,1.270883
2850145,32767,19420,6280,-25,-44,-9,-0.684094,1.014947,1.271145
2865772,32767,19412,6240,-24,-44,-9,-0.683820,1.015033,1.271670
2881398,32767,19452,6276,-24,-45,-9,-0.683705,1.015007,1.272050
2897025,32767,19436,6318,-24,-45,-9,-0.683222,1.015074,1.272706
2912652,32767,19418,6286,-25,-44,-8,-0.683083,1.015116,1.272969
2928278,32767,19494,6246,-26,-45,-9,-0.682943,1.015159,1.273232
2943905,32767,19414,6282,-25,-45,-8,-0.682391,1.015160,1.273726
2959531,32767,19348,6252,-25,-45,-9,-0.682249,1.015202,1.273989
2975157,32767,19470,6330,-24,-45,-8,-0.681897,1.015225,1.274383
2990783,32767,19438,6280,-25,-45,-9,-0.681754,1.015267,1.274647
3006409,32767,19406,6366,-24,-44,-9,-0.681102,1.015275,1.274893
3034207,32767,19398,6258,-24,-44,-8,-0.681102,1.015275,1.274893
3049834,32767,19346,6320,-25,-45,-9,-0.680331,1.015445,1.275639
3065460,32767,19420,6278,-24,-45,-8,-0.679670,1.015453,1.275886
3081087,32767,19446,6288,-23,-45,-9,-0.679522,1.015494,1.276149
3096714,32767,19428,6248,-24,-45,-9,-0.679156,1.015516,1.276544
3112341,32767,19432,6270,-26,-45,-8,-0.678556,1.015584,1.276924
3127967,32767,19396,6214,-24,-44,-9,-0.678337,1.015564,1.277055
3143593,32767,19434,6290,-26,-45,-10,-0.677664,1.015571,1.277301
3159218,32767,19444,6324,-24,-43,-10,-0.676989,1.015578,1.277548
3174844,32767,19396,6234,-23,-43,-8,-0.676834,1.015618,1.277812
3190470,32767,19416,6326,-24,-43,-9,-0.676790,1.015677,1.277917
3206096,32767,19462,6332,-24,-44,-10,-0.676108,1.015683,1.278164
3221723,32767,19374,6280,-24,-45,-9,-0.675424,1.015689,1.278411
3237350,32767,19390,6272,-25,-44,-10,-0.675265,1.015730,1.278675
3252977,32767,19412,6248,-25,-44,-10,-0.674576,1.015736,1.278922
3268604,32767,19420,6286,-25,-45,-10,-0.674347,1.015715,1.279053
3284230,32767,19454,6276,-24,-45,-10,-0.673186,1.015747,1.279416
3299857,32767,19452,6284,-24,-45,-10,-0.672954,1.015727,1.279547
3315484,32767,19452,6354,-25,-45,-9,-0.672790,1.015767,1.279812
3331110,32767,19420,6288,-24,-43,-9,-0.797170,2.229413,3.085501
3346736,32767,19450,6258,-24,-45,-9,-0.671547,1.015738,1.280041
3362361,32767,19454,6294,-25,-45,-9,-0.670769,1.015683,1.280155
3377987,32767,19440,6268,-24,-45,-9,-0.670601,1.015722,1.280419
3393613,32767,19424,6264,-25,-45,-10,-0.669887,1.015727,1.280666
3409239,32767,19402,6252,-25,-44,-9,-0.669170,1.015732,1.280913
3424865,32767,19408,6234,-24,-44,-11,-0.668589,1.015769,1.280782
3440490,32767,19400,6256,-25,-45,-9,-0.668347,1.015748,1.280913
3456116,32767,19410,6262,-24,-44,-11,-0.667622,1.015752,1.281160
3471743,32767,19400,6214,-24,-44,-10,-0.666893,1.015757,1.281407
3487369,32767,19448,6228,-25,-44,-10,-0.666647,1.015736,1.281538
3502996,32767,19400,6290,-24,-45,-10,-0.665913,1.015740,1.281785
3518622,32767,19372,6226,-24,-45,-9,-0.665425,1.015765,1.281901
3534248,32767,19438,6294,-25,-44,-9,-0.664399,1.015819,1.282166
3549875,32767,19402,6290,-24,-45,-9,-0.663837,1.015785,1.282148
3565501,32767,19426,6306,-25,-45,-9,-0.663583,1.015763,1.282279
3581127,32767,19480,6242,-24,-45,-9,-0.662834,1.015767,1.282526
3596753,32767,19470,6284,-24,-46,-10,-0.662267,1.015733,1.282507
3612379,32767,19454,6272,-25,-45,-11,-0.661512,1.015736,1.282754
3628005,32767,19408,6286,-25,-45,-10,-0.661217,1.015785,1.282772
3643631,32767,19372,6216,-24,-45,-9,-0.660143,1.015776,1.282870
3659256,32767,19416,6282,-24,-45,-9,-0.659306,1.015720,1.282983
3674882,32767,19408,6360,-25,-44,-10,-0.659077,1.015829,1.283136
3690509,32767,19390,6292,-24,-44,-9,-0.658499,1.015794,1.283117
3706135,32767,19420,6308,-24,-44,-10,-0.657654,1.015738,1.283229
3721761,32767,19456,6246,-25,-45,-9,-0.657030,1.015891,1.283340
3737387,32767,19398,6254,-26,-44,-10,-0.656447,1.015856,1.283322
3753014,32767,19450,6304,-26,-44,-10,-0.655469,1.015780,1.283593
3768640,32767,19384,6342,-25,-45,-9,-0.654843,1.015817,1.283462
3784266,32767,19432,6270,-24,-46,-9,-0.653542,1.015876,1.283420
3799893,32767,19452,6358,-24,-44,-9,-0.653338,1.015913,1.283685
3815519,32767,19430,6294,-24,-45,-9,-0.652745,1.015879,1.283667
3831146,32767,19464,6314,-25,-44,-10,-0.651871,1.015822,1.283779
3846773,32767,19466,6296,-25,-44,-10,-0.651232,1.015859,1.283648
3862399,32767,19414,6284,-25,-45,-10,-0.650351,1.015803,1.283760
3878025,32767,19434,6270,-25,-44,-9,-0.649750,1.015768,1.283741
3893651,32767,19406,6290,-24,-45,-9,-0.648893,1.015842,1.283877
3909277,32767,19420,6272,-24,-44,-9,-0.648000,1.015785,1.283988
3924903,32767,19446,6236,-25,-44,-10,-0.647466,1.015809,1.284105
3940530,32767,19442,6212,-24,-44,-10,-0.646522,1.015824,1.284105
3956156,32767,19440,6324,-24,-44,-9,-0.645911,1.015790,1.284086
3971782,32767,19424,6312,-24,-43,-9,-0.644959,1.015804,1.284086
3987408,32767,19400,6344,-25,-45,-10,-0.644618,1.015907,1.284180
4003033,32767,19430,6196,-25,-46,-9,-0.643704,1.015850,1.284292
4018659,32767,19422,6240,-25,-45,-10,-0.643040,1.015887,1.284161
4046248,32767,19430,6342,-25,-46,-10,-0.641220,1.015904,1.284409
4061874,32767,19398,6298,-24,-46,-8,-0.640594,1.015869,1.284390
4077500,32767,19432,6326,-25,-45,-9,-0.640289,1.015846,1.284520
4093126,32767,19464,6314,-25,-44,-10,-0.639058,1.015908,1.284507
4108753,32767,19430,6276,-24,-44,-9,-0.638749,1.015885,1.284637
4124380,32767,19400,6282,-25,-45,-9,-0.637435,1.015888,1.284488
4140007,32767,19408,6266,-25,-45,-9,-0.637197,1.015924,1.284754
4155633,32767,19434,6328,-25,-45,-9,-0.636197,1.015938,1.284755
4171260,32767,19442,6232,-25,-44,-9,-0.634917,1.015869,1.284716
4186887,32767,19378,6210,-25,-44,-10,-0.634598,1.015846,1.284846
4202514,32767,19378,6288,-24,-44,-9,-0.633659,1.015919,1.284983
4218140,32767,19400,6236,-25,-45,-9,-0.633013,1.015884,1.284964
4233765,32767,19402,6228,-25,-44,-10,-0.631873,1.015966,1.284793
4249391,32767,19382,6298,-25,-45,-9,-0.631547,1.015943,1.284923
4265018,32767,19422,6266,-24,-44,-10,-0.630591,1.016016,1.285060
4280645,32767,19430,6234,-25,-44,-9,-0.629228,1.016019,1.284910
4296271,32767,19468,6240,-24,-44,-10,-0.629228,1.016019,1.284910
4311897,32767,19394,6288,-25,-44,-10,-0.627577,1.015927,1.285002
4327524,32767,19466,6292,-26,-45,-10,-0.627187,1.015976,1.285022
4343150,32767,19438,6306,-25,-45,-10,-0.625859,1.015907,1.284983
4358775,32767,19436,6314,-25,-45,-8,-0.625520,1.015883,1.285113
4374401,32767,19418,6328,-24,-45,-9,-0.624205,1.015945,1.285100
4390026,32767,19464,6298,-24,-45,-10,-0.623133,1.015959,1.285101
4405652,32767,19416,6218,-24,-45,-9,-0.622460,1.015925,1.285081
4421278,32767,19376,6278,-23,-44,-8,-0.621727,1.016003,1.285307
4436904,32767,19402,6298,-25,-45,-10,-0.621320,1.016052,1.285328
4452531,32767,19434,6238,-25,-45,-9,-0.619960,1.015983,1.285288
4468157,32767,19434,6306,-25,-45,-9,-0.619607,1.015960,1.285418
4483783,32767,19436,6274,-25,-44,-9,-0.618179,1.015963,1.285269
4499410,32767,19448,6228,-25,-44,-10,-0.617822,1.015940,1.285399
4515036,32767,19386,6294,-25,-44,-9,-0.616384,1.015943,1.285250
4530661,32767,19374,6332,-25,-44,-9,-0.615408,1.015943,1.285497
4546287,32767,19444,6242,-24,-44,-9,-0.615408,1.015943,1.285497
4561913,32767,19400,6314,-25,-46,-10,-0.613590,1.015923,1.285478
4577539,32767,19438,6280,-24,-44,-10,-0.613222,1.015899,1.285608
4593166,32767,19406,6238,-25,-44,-9,-0.611757,1.015903,1.285459
4608793,32767,19454,6264,-24,-45,-10,-0.611384,1.015879,1.285589
4624420,32767,19422,6258,-24,-44,-8,-0.610320,1.015950,1.285727
4640046,32767,19472,6280,-25,-45,-10,-0.609121,1.015961,1.285666
4655673,32767,19390,6298,-25,-45,-10,-0.608679,1.016009,1.285687
4671299,32767,19460,6290,-25,-43,-10,-0.607251,1.015940,1.285647
4686925,32767,19384,6286,-24,-44,-9,-0.606534,1.015906,1.285627
4702552,32767,19406,6270,-24,-45,-10,-0.605364,1.015920,1.285627
4718179,32767,19434,6184,-25,-45,-9,-0.604643,1.015886,1.285607
4733806,32767,19420,6148,-25,-44,-10,-0.603797,1.015910,1.285758
4749432,32767,19410,6280,-25,-45,-10,-0.603151,1.015933,1.285875
4765059,32767,19424,6246,-25,-45,-10,-0.601960,1.015947,1.285876
4780685,32767,19430,6300,-25,-44,-10,-0.601960,1.015947,1.285876
4796312,32767,19448,6234,-25,-45,-10,-0.600028,1.015927,1.285857
4811939,32767,19410,6258,-26,-43,-10,-0.598890,1.015869,1.285966
4827565,32767,19450,6270,-24,-44,-9,-0.598080,1.015907,1.285837
4843192,32767,19392,6272,-25,-44,-9,-0.596932,1.015848,1.285946
4858819,32767,19390,6268,-24,-44,-9,-0.596416,1.015893,1.285906
4874445,32767,19454,6320,-23,-45,-8,-0.595188,1.015907,1.285907
4890072,32767,19398,6296,-24,-44,-10,-0.593615,1.015911,1.285758
4905699,32767,19428,6346,-24,-44,-10,-0.593615,1.015911,1.285758
4921325,32767,19400,6274,-25,-44,-9,-0.591614,1.015891,1.285738
4936951,32767,19442,6264,-26,-45,-10,-0.591193,1.015867,1.285868
4952577,32767,19440,6248,-24,-43,-8,-0.589597,1.015871,1.285719
4968202,32767,19404,6230,-24,-45,-9,-0.588834,1.015836,1.285698
4983828,32767,19416,6350,-24,-44,-10,-0.587646,1.015907,1.285837
4999455,32767,19410,6244,-24,-46,-9,-0.586679,1.015928,1.285927
5015080,32767,19410,6298,-25,-45,-9,-0.585830,1.015966,1.285799
5056969,32767,19376,6274,-25,-44,-9,-0.581681,1.015926,1.285759
5072595,32767,19418,6276,-25,-44,-9,-0.581681,1.015926,1.285759
5088221,32767,19450,6324,-25,-45,-10,-0.581157,1.015974,1.285781
5103847,32767,19390,6242,-25,-45,-9,-0.579581,1.015906,1.285739
5119474,32767,19392,6286,-24,-44,-10,-0.578258,1.015920,1.285740
5135100,32767,19408,6346,-24,-44,-9,-0.577382,1.015959,1.285612
5150727,32767,19440,6304,-24,-44,-9,-0.576368,1.015979,1.285702
5166353,32767,19436,6290,-24,-44,-10,-0.575568,1.015944,1.285681
5181979,32767,19420,6316,-24,-45,-9,-0.573758,1.015934,1.285811
5197605,32767,19418,6298,-26,-45,-9,-0.572952,1.016029,1.285822
5213232,32767,19432,6314,-25,-45,-9,-0.572142,1.015995,1.285801
5228859,32767,19420,6274,-25,-45,-10,-0.571589,1.016044,1.285823
5244484,32767,19440,6320,-25,-44,-9,-0.570303,1.015984,1.285932
5260110,32767,19418,6314,-24,-44,-9,-0.568581,1.015989,1.285783
5275737,32767,19468,6284,-25,-44,-9,-0.568018,1.015908,1.285773
5291363,32767,19368,6280,-25,-44,-11,-0.566712,1.015978,1.285913
5306990,32767,19416,6308,-25,-44,-9,-0.565057,1.015910,1.285871
5322617,32767,19444,6302,-25,-44,-9,-0.564482,1.015958,1.285893
5338243,32767,19460,6320,-24,-44,-10,-0.563649,1.015924,1.285872
5353870,32767,19408,6252,-25,-45,-9,-0.562232,1.015938,1.285873
5369497,32767,19446,6306,-24,-44,-10,-0.560801,1.015949,1.285813
5385122,32767,19414,6346,-25,-44,-10,-0.560213,1.015997,1.285835
5400747,32767,19456,6318,-25,-44,-9,-0.558436,1.015872,1.285653
5416373,32767,19450,6238,-25,-44,-9,-0.557841,1.015921,1.285676
5432000,32767,19414,6200,-25,-44,-10,-0.555622,1.015957,1.285795
5447626,32767,19414,6262,-24,-46,-10,-0.554765,1.015923,1.285774
5463252,32767,19424,6278,-24,-45,-9,-0.554252,1.015897,1.285903
5478879,32767,19458,6276,-24,-45,-10,-0.552780,1.015912,1.285904
5494504,32767,19410,6298,-26,-45,-9,-0.551915,1.015877,1.285882
5510131,32767,19438,6250,-25,-43,-10,-0.550429,1.015892,1.285884
5525758,32767,19492,6306,-26,-45,-9,-0.549558,1.015857,1.285862
5541385,32767,19450,6254,-24,-45,-9,-0.548059,1.015871,1.285863
5557011,32767,19382,6240,-24,-44,-9,-0.546649,1.015812,1.285971
5572637,32767,19448,6252,-24,-44,-9,-0.545927,1.015930,1.285826
5588263,32767,19422,6226,-24,-45,-10,-0.545391,1.015905,1.285955
5603890,32767,19420,6278,-25,-45,-9,-0.543865,1.015919,1.285956
5619517,32767,19396,6292,-25,-45,-10,-0.542431,1.015860,1.286063
5635143,32767,19380,6292,-25,-45,-9,-0.541436,1.015899,1.285936
5650769,32767,19428,6324,-25,-44,-10,-0.539976,1.015969,1.286077
5666394,32767,19420,6282,-24,-44,-9,-0.539075,1.015935,1.286056
5682019,32767,19400,6298,-25,-45,-8,-0.536778,1.015938,1.285879
5697645,32767,19450,6298,-25,-44,-10,-0.536203,1.016042,1.286042
5713271,32767,19394,6202,-25,-44,-9,-0.535201,1.015952,1.285880
5728897,32767,19424,6302,-24,-45,-9,-0.533705,1.016022,1.286022
5744524,32767,19428,6366,-24,-45,-9,-0.533136,1.015996,1.286150
5760151,32767,19456,6336,-25,-44,-10,-0.531293,1.015928,1.286107
5775778,32767,19492,6282,-25,-45,-9,-0.530520,1.015921,1.285990
5791405,32767,19394,6304,-25,-43,-10,-0.528663,1.015852,1.285946
5807030,32767,19400,6272,-25,-45,-10,-0.527038,1.015867,1.285947
5822656,32767,19454,6248,-25,-44,-8,-0.526452,1.015841,1.286076
5838283,32767,19466,6372,-25,-44,-9,-2.950937,2.425683,2.328315
5853908,32767,19462,6244,-25,-45,-10,-0.523868,1.015821,1.286055
5869534,32767,19390,6230,-25,-44,-9,-0.522213,1.015835,1.286057
5885161,32767,19438,6332,-24,-44,-9,-0.521706,1.015864,1.286325
5900787,32767,19396,6296,-24,-44,-9,-0.519866,1.015894,1.286020
5916414,32767,19404,6322,-25,-44,-9,-0.519260,1.015868,1.286148
5932040,32767,19428,6312,-26,-45,-9,-0.516495,1.015922,1.286023
5947665,32767,19416,6312,-25,-45,-9,-0.515528,1.015888,1.286001
5963291,32767,19376,6292,-25,-44,-9,-0.514442,1.015928,1.285874
5978918,32767,19424,6280,-25,-44,-9,-0.512848,1.015868,1.285980
5994543,32767,19424,6276,-25,-44,-10,-0.511753,1.015908,1.285853
6010170,32767,19386,6234,-26,-45,-9,-0.510145,1.015848,1.285959
6025797,32767,19418,6236,-25,-45,-9,-0.509393,1.015896,1.285983
6041423,32767,19444,6324,-24,-44,-10,-0.507929,1.015990,1.285970
6069042,32767,19412,6288,-24,-45,-8,-0.507929,1.015990,1.285970
6084667,32767,19424,6242,-24,-44,-8,-0.504181,1.015936,1.285927
6100293,32767,19432,6316,-25,-45,-10,-0.502405,1.015950,1.285928
6115919,32767,19448,6290,-26,-45,-10,-0.501752,1.015923,1.286057
6131545,32767,19436,6224,-25,-44,-9,-0.499607,1.015930,1.285908
6147170,32767,19378,6298,-24,-46,-10,-0.498946,1.015903,1.286036
6162795,32767,19408,6254,-23,-44,-9,-0.497424,1.015997,1.286023
6178421,32767,19430,6280,-24,-45,-10,-0.495605,1.016011,1.286024
6194048,32767,19450,6298,-24,-45,-9,-0.495605,1.016011,1.286024
6209674,32767,19402,6324,-25,-44,-10,-0.492778,1.015862,1.285966
6225300,32767,19408,6334,-25,-45,-10,-0.491614,1.015902,1.285840
6240927,32767,19434,6328,-24,-45,-10,-0.489760,1.015916,1.285841
6256553,32767,19424,6246,-25,-45,-9,-0.489072,1.015890,1.285969
6272180,32767,19430,6294,-25,-44,-9,-0.487201,1.015904,1.285971
6287807,32767,19442,6294,-25,-45,-9,-0.485258,1.015990,1.285808
6303433,32767,19448,6306,-25,-45,-9,-0.484557,1.015963,1.285936
6319060,32767,19442,6248,-25,-44,-9,-0.482658,1.015978,1.285937
6334686,32767,19410,6262,-25,-44,-9,-0.481595,1.015943,1.285915
6350313,32767,19462,6296,-25,-44,-10,-0.479678,1.015957,1.285917
6365938,32767,19386,6260,-25,-45,-10,-0.478607,1.015924,1.285894
6381564,32767,19422,6250,-25,-45,-8,-0.476672,1.015938,1.285896
6397191,32767,19412,6276,-25,-45,-9,-0.475947,1.015911,1.286023
6412817,32767,19472,6270,-25,-44,-9,-0.473994,1.015925,1.286025
6428443,32767,19434,6302,-24,-45,-9,-0.472028,1.015939,1.286027
6444068,32767,19440,6234,-25,-45,-10,-0.472028,1.015939,1.286027
6459693,32767,19450,6310,-25,-43,-9,-0.468951,1.015919,1.286006
6475318,32767,19392,6266,-26,-44,-9,-0.468409,1.015918,1.285978
6490945,32767,19432,6222,-25,-46,-10,-0.466053,1.015924,1.285829
6506571,32767,19418,6200,-24,-44,-10,-0.465396,1.015952,1.286099
6522198,32767,19430,6232,-25,-45,-9,-0.463376,1.015966,1.286101
6537823,32767,19434,6298,-24,-44,-9,-0.461342,1.015980,1.286103
6553448,32767,19404,6354,-25,-44,-9,-0.460573,1.015953,1.286230
6569075,32767,19412,6304,-25,-45,-10,-0.458066,1.015906,1.285939
6584701,32767,19436,6250,-25,-44,-10,-0.457287,1.015879,1.286067
6600326,32767,19390,6250,-24,-44,-8,-0.455214,1.015893,1.286069
6615952,32767,19410,6218,-24,-44,-9,-0.454385,1.015939,1.286032
6631579,32767,19452,6244,-25,-45,-8,-0.452294,1.015953,1.286034
6647205,32767,19366,6250,-26,-44,-10,-0.451343,1.016001,1.286060
6662830,32767,19442,6304,-24,-44,-9,-0.449388,1.015940,1.286164
6678456,32767,19460,6280,-24,-44,-9,-0.447263,1.015954,1.286166
6694081,32767,19428,6266,-25,-44,-9,-0.447263,1.015954,1.286166
6709707,32767,19390,6300,-26,-44,-10,-0.444272,1.016013,1.286132
6725333,32767,19400,6230,-24,-45,-9,-0.442938,1.016054,1.286006
6740959,32767,19402,6246,-24,-44,-9,-0.440671,1.016015,1.285866
6756585,32767,19394,6330,-25,-44,-10,-0.439841,1.015988,1.285993
6772212,32767,19392,6324,-24,-45,-8,-0.437302,1.015995,1.285844
6787837,32767,19474,6294,-24,-44,-10,-0.435103,1.016009,1.285847
6803464,32767,19372,6262,-25,-44,-9,-0.434257,1.015982,1.285974
6819091,32767,19436,6280,-25,-46,-9,-0.434257,1.015982,1.285974
6834718,32767,19426,6258,-25,-44,-9,-0.431153,1.016041,1.285940
6850345,32767,19432,6230,-25,-46,-9,-0.428913,1.016055,1.285943
6865972,32767,19392,6290,-24,-45,-9,-0.428048,1.016028,1.286070
6881599,32767,19406,6240,-24,-44,-9,-0.425786,1.016042,1.286072
6897225,32767,19442,6288,-24,-45,-10,-0.423510,1.016056,1.286074
6912851,32767,19440,6312,-24,-45,-10,-0.422629,1.016029,1.286201
6928478,32767,19444,6298,-25,-45,-9,-0.420225,1.015989,1.286060
6944104,32767,19424,6254,-25,-44,-9,-0.417560,1.015997,1.285912
6959731,32767,19414,6288,-25,-44,-9,-0.416995,1.016049,1.286027
6975358,32767,19402,6296,-26,-43,-8,-0.415744,1.016015,1.286003
6990985,32767,19428,6276,-25,-45,-9,-0.413402,1.016029,1.286006
7006611,32767,19388,6276,-25,-44,-8,-0.412311,1.016077,1.286032
7022238,32767,19412,6286,-24,-44,-9,-0.409839,1.016038,1.285890
7037865,32767,19450,6240,-24,-46,-8,-0.407292,1.015970,1.285843
7053491,32767,19426,6306,-25,-45,-9,-0.406518,1.016098,1.285857
7081244,32767,19422,6298,-25,-43,-9,-0.401885,1.016050,1.285963
7096869,32767,19396,6302,-25,-45,-9,-0.400402,1.016092,1.285838
7112494,32767,19430,6204,-25,-44,-10,-0.399452,1.016064,1.285965
7128121,32767,19414,6256,-25,-44,-9,-0.397003,1.016078,1.285968
7143748,32767,19416,6310,-25,-44,-8,-0.395587,1.015991,1.285800
7159375,32767,19408,6296,-24,-44,-10,-0.393115,1.016006,1.285802
7175000,32767,19420,6316,-26,-43,-9,-0.392296,1.016133,1.285818
7190626,32767,19434,6332,-24,-45,-9,-0.389800,1.016147,1.285820
7206253,32767,19448,6278,-24,-45,-9,-0.387484,1.016085,1.285923
7221878,32767,19406,6310,-22,-45,-9,-0.385951,1.016127,1.285799
7237504,32767,19420,6304,-25,-45,-10,-0.383614,1.016066,1.285902
7253129,32767,19408,6264,-24,-45,-9,-0.382412,1.016114,1.285928
7268755,32767,19424,6280,-25,-45,-10,-0.379943,1.015999,1.285887
7284380,32767,19430,6272,-26,-43,-9,-0.378728,1.016047,1.285913
7300006,32767,19464,6274,-25,-44,-10,-0.376346,1.015985,1.286016
7315633,32767,19462,6238,-24,-45,-9,-0.374773,1.016027,1.285892
7331260,32767,19430,6250,-24,-45,-8,-0.371485,1.016092,1.286010
7346886,32767,19406,6284,-24,-43,-10,-0.370102,1.016059,1.285986
7362513,32767,19462,6248,-25,-45,-10,-0.369059,1.016030,1.286113
7378140,32767,19424,6316,-25,-44,-9,-0.366409,1.016044,1.286115
7393765,32767,19424,6310,-25,-45,-9,-0.364689,1.016034,1.285847
7409392,32767,19438,6300,-24,-46,-9,-0.362225,1.015972,1.285949
7425019,32767,19434,6280,-25,-45,-10,-0.361308,1.016100,1.285966
7440645,32767,19422,6272,-25,-45,-8,-0.358606,1.016114,1.285968
7456272,32767,19400,6180,-25,-45,-8,-0.356104,1.016052,1.286070
7471897,32767,19396,6294,-25,-44,-9,-0.354799,1.016099,1.286098
7487524,32767,19440,6236,-24,-44,-9,-0.352053,1.016113,1.286100
7503150,32767,19400,6268,-26,-44,-9,-0.350953,1.016085,1.286227
7518775,32767,19472,6254,-25,-44,-9,-0.348552,1.016178,1.286219
7534402,32767,19396,6294,-25,-44,-9,-0.346988,1.016092,1.286050
7550028,32767,19438,6256,-24,-44,-10,-0.344190,1.016106,1.286053
7565653,32767,19426,6296,-25,-45,-9,-0.343066,1.016078,1.286179
7581280,32767,19436,6248,-25,-45,-10,-0.339103,1.016063,1.286309
7596907,32767,19432,6262,-24,-44,-10,-0.337626,1.016030,1.286284
7612534,32767,19404,6308,-24,-46,-10,-0.336365,1.015949,1.286265
7628159,32767,19414,6230,-24,-44,-10,-0.333495,1.015963,1.286268
7643786,32767,19422,6328,-24,-44,-9,-0.331770,1.016005,1.286144
7659412,32767,19414,6290,-26,-44,-10,-0.329106,1.015943,1.286246
7675039,32767,19338,6306,-25,-45,-10,-0.327582,1.015939,1.286128
7690670,32767,19456,6322,-24,-44,-9,-0.323523,1.015998,1.286097
7706296,32767,19416,6286,-25,-45,-9,-0.322004,1.015965,1.286072
7721922,32767,19450,6228,-25,-44,-9,-0.320570,1.016013,1.286099
7737548,32767,19394,6242,-25,-44,-8,-0.317480,1.015975,1.285957
7753174,32767,19394,6288,-25,-44,-9,-0.316271,1.015946,1.286083
7768799,32767,19384,6310,-26,-44,-9,-0.313269,1.015960,1.286086
7784425,32767,19400,6280,-24,-45,-9,-0.311721,1.015926,1.286061
7800050,32767,19434,6286,-24,-44,-9,-0.309084,1.016020,1.286055
7815677,32767,19432,6322,-25,-45,-8,-0.305917,1.015982,1.285912
7831303,32767,19466,6292,-26,-45,-9,-0.304421,1.016030,1.285940
7846929,32767,19452,6270,-26,-44,-9,-0.301340,1.016044,1.285942
7862555,32767,19400,6248,-25,-44,-10,-0.299758,1.016010,1.285917
7878189,32767,19366,6314,-25,-45,-9,-0.296970,1.016029,1.286071
7893816,32767,19434,6220,-25,-44,-9,-0.295375,1.015995,1.286046
7909442,32767,19394,6268,-25,-44,-10,-0.292638,1.016089,1.286041
7925068,32767,19446,6320,-25,-45,-9,-0.291230,1.016008,1.286021
7940694,32767,19444,6254,-25,-45,-8,-0.286496,1.016070,1.286052
7956321,32767,19410,6270,-25,-44,-10,-0.284872,1.016036,1.286027
7971947,32767,19452,6328,-26,-44,-9,-0.283295,1.016084,1.286055
7987573,32767,19402,6308,-25,-45,-9,-0.280218,1.015969,1.286009
8003200,32767,19438,6322,-25,-44,-9,-0.278309,1.016013,1.285887
8018827,32767,19422,6270,-24,-44,-9,-0.275056,1.016027,1.285890
8034453,32767,19424,6234,-24,-44,-10,-0.273713,1.015998,1.286015
8050079,32767,19420,6288,-25,-45,-9,-0.270843,1.016091,1.286010
8077673,32767,19416,6284,-25,-44,-10,-0.270843,1.016091,1.286010
8093299,32767,19424,6278,-26,-44,-9,-0.264675,1.015995,1.286119
8108925,32767,19424,6290,-25,-44,-9,-0.261328,1.016009,1.286122
8124551,32767,19436,6240,-24,-46,-9,-0.259354,1.016053,1.285999
8140177,32767,19426,6252,-25,-45,-10,-0.256561,1.015994,1.286250
8155804,32767,19458,6252,-25,-43,-9,-0.253160,1.016008,1.286253
8171429,32767,19398,6276,-25,-45,-10,-0.251620,1.015927,1.286232
8187056,32767,19392,6230,-25,-45,-9,-0.248186,1.015941,1.286235
8202683,32767,19448,6326,-24,-44,-9,-0.245157,1.016034,1.286231
8218310,32767,19438,6224,-24,-45,-9,-0.243419,1.016001,1.286206
8233935,32767,19418,6276,-25,-45,-9,-0.241555,1.015997,1.286088
8249561,32767,19434,6308,-26,-44,-10,-0.238055,1.016011,1.286091
8265191,32767,19406,6284,-25,-44,-9,-0.236592,1.015982,1.286216
8280817,32767,19452,6230,-25,-44,-8,-0.233059,1.015996,1.286219
8296444,32767,19380,6296,-25,-44,-8,-0.229938,1.016089,1.286215
8312070,32767,19416,6232,-25,-45,-9,-0.228321,1.016008,1.286194
8327696,32767,19410,6286,-24,-46,-10,-0.224733,1.016023,1.286197
8343322,32767,19388,6276,-26,-44,-9,-0.222634,1.016066,1.286075
8358949,32767,19418,6260,-25,-44,-9,-0.219296,1.016084,1.286229
8374576,32767,19426,6316,-24,-45,-8,-0.217487,1.016050,1.286204
8390203,32767,19438,6288,-24,-45,-10,-0.214144,1.016093,1.286053
8405830,32767,19410,6228,-23,-43,-8,-0.211057,1.016034,1.286304
8421457,32767,19420,6278,-25,-44,-9,-0.208912,1.016077,1.286182
8437083,32767,19440,6240,-25,-45,-10,-0.205069,1.016041,1.286038
8452710,32767,19410,6276,-26,-45,-9,-0.201331,1.016055,1.286041
8468336,32767,19424,6334,-26,-43,-9,-0.199750,1.016025,1.286167
8483962,32767,19386,6240,-24,-44,-8,-0.197440,1.016018,1.285898
8499588,32767,19418,6242,-24,-44,-9,-0.194700,1.016038,1.286142
8515215,32767,19430,6220,-24,-45,-9,-0.190893,1.016052,1.286145
8530841,32767,19352,6214,-25,-45,-9,-0.189277,1.016022,1.286270
8546467,32767,19408,6220,-25,-45,-8,-0.185434,1.016036,1.286273
8562093,32767,19418,6290,-25,-45,-9,-0.183470,1.016083,1.286303
8577719,32767,19428,6288,-25,-45,-9,-0.178003,1.016093,1.286127
8593345,32767,19434,6252,-25,-44,-10,-0.176011,1.016140,1.286156
8608971,32767,19434,6258,-24,-44,-9,-0.174089,1.016107,1.286130
8624598,32767,19444,6290,-25,-45,-8,-0.172421,1.016076,1.286255
8640225,32767,19422,6250,-25,-45,-9,-0.168338,1.016040,1.286111
8655851,32767,19398,6264,-26,-45,-9,-0.164615,1.016057,1.286265
8671476,32767,19424,6282,-25,-44,-10,-0.162319,1.016101,1.286144
8687102,32767,19420,6322,-24,-44,-9,-0.159119,1.016117,1.286237
8702728,32767,19434,6236,-25,-44,-10,-0.155197,1.016084,1.286244
8718354,32767,19432,6324,-25,-44,-9,-0.153222,1.016051,1.286218
8733980,32767,19418,6276,-25,-45,-9,-0.151135,1.016098,1.286247
8749605,32767,19410,6266,-25,-44,-10,-0.146914,1.016062,1.286103
8765233,32767,19368,6218,-24,-45,-10,-0.143158,1.015998,1.286202
8780860,32767,19444,6290,-25,-45,-9,-0.141033,1.016045,1.286232
8796486,32767,19428,6294,-25,-43,-9,-0.137226,1.016089,1.286082
8812112,32767,19438,6266,-25,-45,-8,-0.135439,1.016058,1.286207
8842625,32767,19416,6256,-25,-45,-8,-0.125089,1.016006,1.286191
8858251,32767,19420,6288,-24,-44,-9,-0.125089,1.016006,1.286191
8873878,32767,19394,6304,-25,-45,-8,-0.122671,1.016050,1.286069
8889503,32767,19416,6274,-26,-45,-9,-0.118410,1.016065,1.286073
8905129,32767,19378,6238,-25,-44,-9,-0.114690,1.016111,1.286075
8920756,32767,19400,6260,-25,-43,-9,-0.112617,1.016078,1.286048
8936382,32767,19468,6322,-25,-44,-9,-0.108294,1.016092,1.286052
8952009,32767,19378,6300,-25,-45,-9,-0.105901,1.016089,1.285934
8967635,32767,19430,6286,-24,-45,-11,-0.099640,1.016072,1.286062
8983262,32767,19432,6252,-24,-45,-9,-0.098229,1.016121,1.286182
8998888,32767,19426,6254,-24,-44,-10,-0.095731,1.016166,1.286061
9014515,32767,19436,6242,-25,-45,-10,-0.093815,1.016135,1.286186
9030141,32767,19416,6304,-25,-45,-9,-0.089238,1.016100,1.286041
9045766,32767,19424,6246,-25,-45,-9,-0.084967,1.016116,1.286196
9061392,32767,19436,6260,-25,-44,-9,-0.082824,1.016083,1.286169
9077019,32767,19402,6192,-24,-43,-9,-0.078370,1.016049,1.286175
9104780,32767,19436,6272,-24,-43,-11,-0.078370,1.016049,1.286175
9120407,32767,19406,6274,-24,-44,-10,-0.070045,1.016029,1.286124
9136033,32767,19416,6286,-25,-45,-8,-0.065465,1.016043,1.286128
9151660,32767,19440,6304,-25,-45,-9,-0.063050,1.016090,1.286158
9167287,32767,19436,6240,-24,-45,-10,-0.058289,1.016055,1.286013
9182913,32767,19422,6292,-24,-45,-10,-0.056259,1.016024,1.286138
9198539,32767,19448,6276,-24,-44,-9,-0.052108,1.016118,1.286138
9214166,32767,19404,6240,-24,-44,-9,-0.049918,1.016037,1.286113
9229791,32767,19412,6268,-25,-43,-10,-0.043150,1.016020,1.286241
9245416,32767,19416,6286,-25,-44,-10,-0.040497,1.016065,1.286121
9261042,32767,19406,6338,-24,-44,-8,-0.038272,1.015985,1.286096
9276668,32767,19386,6266,-25,-45,-9,-0.033510,1.015999,1.286100
9292293,32767,19404,6262,-26,-44,-9,-0.031498,1.016125,1.286127
9307919,32767,19418,6280,-25,-44,-8,-0.026554,1.016090,1.285982
9323544,32767,19386,6320,-25,-45,-9,-0.024429,1.016059,1.286106
9339171,32767,19416,6240,-25,-43,-9,-0.019587,1.016073,1.286110
9354796,32767,19434,6268,-25,-44,-9,-0.014579,1.016038,1.285965
9370422,32767,19436,6320,-24,-44,-10,-0.012942,1.016086,1.286085
9386047,32767,19464,6324,-25,-44,-8,-0.007896,1.016051,1.285940
9401673,32767,19414,6266,-24,-44,-10,-0.005152,1.016097,1.285820
9417299,32767,19446,6282,-24,-44,-9,-0.000631,1.015985,1.285919
9432925,32767,19416,6278,-25,-44,-8,0.002012,1.016032,1.285950
9448551,32767,19456,6284,-26,-44,-9,0.006995,1.016046,1.285954
9464178,32767,19412,6258,-25,-44,-9,0.009217,1.016015,1.286078
9479805,32767,19398,6300,-26,-44,-9,0.016199,1.016026,1.285902
9495431,32767,19424,6228,-26,-46,-9,0.019042,1.016025,1.285784
9511056,32767,19440,6314,-25,-46,-9,0.021751,1.016072,1.285815
9526683,32767,19380,6268,-25,-45,-9,0.026381,1.016007,1.285912
9542311,32767,19412,6300,-25,-44,-10,0.029114,1.016054,1.285943
9557937,32767,19412,6332,-24,-45,-10,0.034238,1.016068,1.285947
9573563,32767,19396,6212,-24,-44,-8,0.036144,1.016068,1.285919
9589191,32767,19412,6238,-25,-45,-10,0.041305,1.016082,1.285923
9604817,32767,19430,6236,-25,-44,-8,0.046414,1.016097,1.286078
9620443,32767,19440,6206,-25,-44,-9,0.048747,1.016065,1.286202
9636069,32767,19456,6240,-26,-44,-8,0.054119,1.016031,1.286056
9651694,32767,19428,6276,-25,-45,-9,0.055932,1.016078,1.286178
9667320,32767,19440,6322,-25,-44,-8,0.061195,1.016092,1.286181
9682946,32767,19430,6274,-25,-43,-9,0.064189,1.016091,1.286064
9698572,32767,19402,6290,-25,-45,-10,0.069492,1.016105,1.286067
9714199,32767,19448,6246,-24,-45,-9,0.074434,1.015993,1.286165
9729824,32767,19410,6246,-24,-43,-9,0.074434,1.015993,1.286165
9745449,32767,19466,6270,-25,-44,-8,0.079786,1.016006,1.286169
9761076,32767,19416,6232,-26,-44,-9,0.084578,1.016101,1.286322
9776702,32767,19468,6268,-25,-45,-9,0.090125,1.016067,1.286176
9792328,32767,19446,6272,-26,-44,-9,0.092576,1.016035,1.286300
9807955,32767,19390,6276,-25,-44,-8,0.098014,1.016049,1.286304
9823581,32767,19418,6346,-25,-44,-9,0.101124,1.016047,1.286186
9839208,32767,19452,6256,-26,-45,-9,0.106103,1.015982,1.286281
9854834,32767,19414,6236,-24,-44,-10,0.111192,1.016028,1.286134
9870461,32767,19434,6338,-25,-43,-9,0.114195,1.016075,1.286166
9886087,32767,19440,6280,-25,-44,-9,0.119871,1.016041,1.286020
9901714,32767,19430,6244,-26,-44,-9,0.122394,1.016008,1.286143
9917340,32767,19416,6308,-24,-44,-9,0.128105,1.015975,1.285997
9932967,32767,19452,6258,-24,-45,-10,0.131155,1.016021,1.286029
9948593,32767,19434,6302,-25,-45,-9,0.136246,1.015956,1.286124
9964219,32767,19448,6338,-25,-44,-8,0.142035,1.015923,1.286129
9979845,32767,19432,6306,-24,-44,-8,0.142035,1.015923,1.286129
9995472,32767,19466,6314,-24,-44,-9,0.150341,1.016015,1.285863
10011098,32767,19390,6300,-25,-44,-9,0.152935,1.015983,1.285986
10026725,32767,19382,6260,-26,-43,-9,0.158765,1.015949,1.285840
10042352,32767,19428,6290,-25,-45,-8,0.161898,1.015996,1.285872
10057978,32767,19450,6322,-25,-45,-9,0.167669,1.016010,1.286028
10073604,32767,19408,6270,-24,-45,-9,0.172473,1.015977,1.285971
10089231,32767,19416,6250,-25,-45,-10,0.175645,1.016024,1.286004
10104857,32767,19446,6296,-26,-45,-8,0.181564,1.015990,1.285857
10132508,32767,19426,6294,-25,-44,-9,0.181564,1.015990,1.285857
10148135,32767,19452,6268,-26,-42,-9,0.193392,1.015971,1.285866
10163761,32767,19436,6212,-25,-44,-8,0.198665,1.016064,1.285870
10179387,32767,19390,6308,-25,-44,-8,0.201510,1.015984,1.285842
10195013,32767,19438,6274,-24,-44,-10,0.207469,1.015998,1.285998
10210639,32767,19464,6250,-24,-44,-9,0.210090,1.015966,1.285969
10226266,32767,19434,6270,-26,-45,-9,0.216231,1.015932,1.285974
10241893,32767,19410,6290,-26,-44,-9,0.222143,1.015946,1.285978
10257519,32767,19434,6284,-24,-45,-10,0.225036,1.015866,1.285950
10273146,32767,19422,6374,-25,-45,-9,-3.140880,-0.000254,0.571194
10288773,32767,19410,6304,-25,-44,-10,0.233723,1.016006,1.285987
10304400,32767,19432,6356,-25,-44,-10,0.239832,1.015973,1.285841
10320026,32767,19428,6236,-25,-44,-9,0.242757,1.015893,1.285812
10335652,32767,19410,6342,-26,-45,-10,0.248747,1.015907,1.285816
10351277,32767,19446,6262,-26,-44,-10,0.252241,1.015907,1.285698
10366903,32767,19416,6312,-25,-44,-9,0.260506,1.015968,1.285825
10382528,32767,19380,6306,-25,-44,-9,0.264025,1.015967,1.285707
10398155,32767,19410,6274,-24,-44,-9,0.266851,1.015934,1.285830
10413782,32767,19424,6236,-25,-43,-9,0.272908,1.015948,1.285834
10429409,32767,19384,6252,-25,-44,-8,0.275892,1.015868,1.285805
10445035,32767,19408,6306,-25,-43,-10,0.281589,1.015962,1.285962
10460661,32767,19394,6328,-24,-45,-10,0.284825,1.016009,1.285844
10476287,32767,19404,6276,-25,-45,-10,0.291066,1.015976,1.285697
10491912,32767,19410,6226,-25,-44,-8,0.296957,1.016022,1.285702
10507539,32767,19442,6280,-24,-44,-9,0.299839,1.015989,1.285824
10523164,32767,19392,6320,-25,-45,-10,0.305976,1.016003,1.285829
10538791,32767,19390,6324,-25,-44,-9,0.309580,1.016003,1.285711
10554417,32767,19472,6280,-25,-45,-10,0.315736,1.016017,1.285715
10570044,32767,19442,6290,-25,-46,-8,0.318784,1.015937,1.285686
10585671,32767,19450,6286,-25,-44,-10,0.324628,1.016030,1.285843
10601296,32767,19416,6344,-26,-44,-9,0.327317,1.015998,1.285814
10616922,32767,19426,6272,-25,-45,-10,0.337399,1.016011,1.285851
10632548,32767,19414,6322,-25,-44,-10,0.340229,1.015932,1.285670
10648174,32767,19428,6262,-24,-44,-9,0.343748,1.015978,1.285704
10663801,32767,19436,6282,-26,-44,-9,0.349545,1.016025,1.285558
10679428,32767,19444,6264,-26,-44,-10,0.352500,1.015992,1.285681
10695054,32767,19394,6294,-25,-44,-9,0.358867,1.015960,1.285533
10710680,32767,19418,6226,-25,-44,-9,0.362412,1.016006,1.285567
10726305,32767,19462,6284,-25,-44,-9,0.368357,1.015939,1.285811
10741932,32767,19426,6300,-24,-44,-10,0.374746,1.015907,1.285664
10757559,32767,19402,6246,-26,-45,-9,0.377895,1.015987,1.285547
10773191,32767,19470,6238,-26,-44,-9,0.384158,1.016001,1.285552
10788818,32767,19360,6310,-24,-45,-9,0.387152,1.015967,1.285674
10804444,32767,19418,6242,-25,-45,-8,0.393559,1.015935,1.285526
10820070,32767,19420,6286,-25,-46,-9,0.397147,1.015982,1.285560
10835697,32767,19406,6292,-25,-45,-9,0.403335,1.016028,1.285566
10851323,32767,19456,6210,-25,-45,-9,0.406350,1.015995,1.285688
10866949,32767,19482,6284,-26,-45,-9,0.416387,1.016009,1.285575
10882576,32767,19426,6274,-26,-45,-10,0.419413,1.015975,1.285697
10898203,32767,19406,6232,-25,-43,-10,0.423031,1.016022,1.285731
10913829,32767,19466,6324,-26,-44,-9,0.428924,1.016069,1.285586
10929456,32767,19400,6268,-25,-45,-8,0.431961,1.016036,1.285707
10945081,32767,19434,6280,-25,-44,-9,0.438634,1.016048,1.285863
10960708,32767,19432,6250,-24,-45,-10,0.442034,1.016050,1.285594
10976335,32767,19400,6278,-24,-45,-8,0.448129,1.015982,1.285837
10991961,32767,19446,6246,-25,-45,-9,0.454417,1.016029,1.285843
11007587,32767,19440,6310,-26,-45,-10,0.458067,1.016075,1.285878
11023214,32767,19382,6260,-25,-44,-9,0.464390,1.016089,1.285883
11038844,32767,19400,6248,-26,-44,-8,0.467582,1.016009,1.285852
11054471,32767,19422,6186,-24,-44,-9,0.473772,1.016101,1.286011
11070096,32767,19418,6272,-25,-45,-8,0.477435,1.016148,1.286046
11085721,32767,19394,6296,-25,-45,-9,0.483889,1.016116,1.285898
11101347,32767,19416,6292,-25,-44,-9,0.486430,1.016162,1.286022
11143209,32767,19420,6218,-25,-44,-9,0.506513,1.016109,1.286034
11158836,32767,19380,6298,-24,-45,-8,0.506513,1.016109,1.286034
11174463,32767,19424,6298,-25,-44,-9,0.512428,1.016157,1.285890
11190090,32767,19426,6300,-25,-46,-9,0.516106,1.016203,1.285925
11205717,32767,19442,6336,-25,-44,-10,0.522539,1.016171,1.285777
11221343,32767,19424,6280,-25,-44,-9,0.525624,1.016137,1.285898
11236969,32767,19414,6216,-25,-45,-10,0.532515,1.016104,1.285901
11252595,32767,19436,6264,-25,-45,-9,0.538810,1.016118,1.285906
11268221,32767,19454,6234,-26,-44,-9,0.538810,1.016118,1.285906
11283847,32767,19424,6220,-25,-44,-10,0.548275,1.016130,1.286034
11299474,32767,19422,6310,-25,-43,-9,0.552078,1.016131,1.285916
11315101,32767,19370,6228,-26,-45,-9,0.558356,1.016145,1.285922
11330727,32767,19390,6248,-24,-45,-10,0.561565,1.016065,1.285889
11346354,32767,19444,6298,-26,-45,-9,0.567828,1.016157,1.286050
11361980,32767,19396,6192,-25,-44,-10,0.574205,1.016125,1.285902
11377607,32767,19422,6322,-25,-45,-9,0.577883,1.016171,1.285937
11393234,32767,19434,6316,-24,-44,-9,0.584242,1.016140,1.285789
11408860,32767,19424,6236,-25,-44,-8,0.587327,1.016106,1.285910
11424485,32767,19450,6264,-25,-44,-9,0.594200,1.016073,1.285913
11440111,32767,19410,6272,-25,-44,-8,0.596788,1.016118,1.286038
11455737,32767,19432,6274,-24,-45,-8,0.603117,1.016086,1.285890
11471364,32767,19406,6256,-24,-44,-9,0.606783,1.016133,1.285925
11486990,32767,19430,6260,-25,-44,-8,0.613151,1.016179,1.285933
11502617,32767,19412,6228,-25,-44,-8,0.619448,1.016148,1.285784
11518242,32767,19480,6272,-26,-45,-8,0.619448,1.016148,1.285784
11533867,32767,19386,6202,-25,-44,-9,0.629254,1.016125,1.286062
11549493,32767,19438,6336,-25,-45,-9,0.633019,1.016126,1.285944
11565119,32767,19404,6282,-24,-44,-9,0.638102,1.016139,1.286039
11580745,32767,19410,6302,-25,-44,-10,0.641860,1.016140,1.285921
11596371,32767,19410,6322,-25,-45,-10,0.648677,1.016107,1.285923
11611997,32767,19440,6256,-25,-45,-9,0.654785,1.016121,1.285929
11627623,32767,19404,6266,-26,-43,-8,0.657950,1.016041,1.285895
11643249,32767,19384,6258,-25,-44,-8,0.664163,1.016132,1.286057
11658875,32767,19410,6286,-25,-44,-9,0.667293,1.016136,1.285788
11674502,32767,19400,6300,-25,-44,-10,0.674065,1.016103,1.285790
11690128,32767,19440,6306,-24,-44,-9,0.677108,1.016068,1.285911
11705754,32767,19398,6298,-25,-43,-9,0.682785,1.016117,1.285768
11721380,32767,19422,6278,-24,-43,-10,0.686390,1.016163,1.285804
11737007,32767,19444,6268,-25,-44,-9,0.692499,1.016132,1.285655
11752633,32767,19434,6214,-25,-44,-9,0.698650,1.016018,1.285742
11768259,32767,19484,6294,-25,-43,-10,0.698650,1.016018,1.285742
11783886,32767,19424,6284,-25,-44,-9,0.708485,1.016110,1.285786
11799512,32767,19416,6258,-26,-44,-10,0.711499,1.016075,1.285906
11815139,32767,19374,6282,-24,-45,-9,0.717532,1.016045,1.285757
11830765,32767,19380,6322,-25,-44,-10,0.721095,1.016091,1.285794
11846392,32767,19454,6190,-24,-45,-9,0.727749,1.016058,1.285796
11862019,32767,19434,6234,-24,-44,-8,0.733294,1.016067,1.286042
11877645,32767,19408,6308,-25,-44,-9,0.736937,1.016069,1.285924
11893276,32767,19386,6290,-25,-44,-8,0.742789,1.016083,1.285930
11908903,32767,19422,6262,-25,-44,-10,0.745430,1.016083,1.285901
11924528,32767,19458,6284,-25,-45,-10,0.752021,1.016049,1.285904
11940155,32767,19400,6240,-25,-44,-9,0.754860,1.016099,1.285789
11955782,32767,19426,6248,-24,-45,-8,0.761325,1.016109,1.285946
11971409,32767,19430,6270,-26,-45,-9,0.767447,1.016155,1.285954
11987035,32767,19436,6312,-26,-44,-10,0.770393,1.016120,1.286074
12002660,32767,19430,6278,-25,-44,-9,0.776217,1.016090,1.285925
12018287,32767,19408,6262,-26,-44,-8,0.782711,1.016057,1.285927
12033913,32767,19460,6270,-25,-44,-9,0.786266,1.016059,1.285809
12049538,32767,19410,6318,-25,-44,-9,0.789185,1.016023,1.285929
12065165,32767,19402,6288,-25,-44,-8,0.795143,1.016113,1.286092
12080792,32767,19426,6248,-24,-44,-10,0.797966,1.016119,1.285823
12096419,32767,19422,6336,-24,-44,-9,0.803853,1.016004,1.285908
12112046,32767,19398,6254,-24,-44,-8,0.810166,1.016014,1.286065
12127673,32767,19466,6314,-25,-44,-10,0.813271,1.016096,1.285954
12155276,32767,19428,6318,-25,-45,-10,0.825261,1.016033,1.285806
12170901,32767,19418,6248,-25,-44,-9,0.827390,1.016001,1.285775
12186528,32767,19432,6244,-24,-44,-9,0.830765,1.016047,1.285812
12202154,32767,19420,6304,-25,-44,-10,0.836676,1.016093,1.285821
12217781,32767,19466,6260,-25,-45,-9,0.839514,1.016057,1.285940
12233408,32767,19366,6274,-25,-44,-9,0.845778,1.016024,1.285942
12249035,32767,19390,6278,-25,-44,-9,0.847942,1.015949,1.285755
12264662,32767,19432,6254,-24,-45,-9,0.853711,1.016038,1.285919
12280288,32767,19412,6236,-25,-43,-9,0.859914,1.016005,1.285921
12295914,32767,19448,6290,-25,-45,-9,0.863220,1.016050,1.285958
12311540,32767,19470,6238,-25,-44,-10,0.869020,1.016097,1.285967
12327166,32767,19414,6234,-25,-43,-8,0.871802,1.016061,1.286087
12342792,32767,19436,6314,-24,-45,-9,0.877174,1.016031,1.285937
12358418,32767,19438,6272,-25,-45,-8,0.880440,1.016077,1.285975
12374044,32767,19452,6186,-25,-45,-9,0.886172,1.016123,1.285984
12389670,32767,19438,6288,-26,-44,-8,0.888921,1.016087,1.286103
12405296,32767,19400,6246,-26,-44,-9,0.898274,1.016056,1.285987
12420922,32767,19414,6246,-24,-45,-9,0.900229,1.016024,1.285955
12436548,32767,19454,6322,-25,-44,-9,0.902948,1.015988,1.286074
12452175,32767,19400,6240,-25,-45,-8,0.908589,1.016034,1.286083
12467801,32767,19394,6294,-25,-43,-9,0.911852,1.016037,1.285965
12483427,32767,19408,6290,-25,-44,-9,0.917017,1.016008,1.285816
12499054,32767,19430,6284,-26,-44,-9,0.919847,1.016133,1.285862
12514679,32767,19398,6238,-26,-45,-9,0.925269,1.016018,1.285944
12530305,32767,19420,6270,-26,-44,-10,0.931621,1.016067,1.285864
12545931,32767,19408,6284,-25,-44,-9,0.934275,1.016030,1.285983
12561557,32767,19394,6288,-24,-44,-8,0.939319,1.016001,1.285833
12577191,32767,19418,6290,-24,-44,-9,0.942101,1.016127,1.285880
12592817,32767,19408,6216,-25,-44,-9,0.947890,1.016093,1.285881
12608443,32767,19460,6218,-24,-44,-9,0.950574,1.016014,1.285844
12624069,32767,19430,6310,-25,-44,-9,0.956253,1.016024,1.286001
12639696,32767,19420,6302,-25,-44,-9,0.957808,1.016029,1.285822
12655322,32767,19456,6292,-25,-43,-10,0.966551,1.016041,1.285861
12670949,32767,19424,6314,-25,-44,-8,0.969189,1.015962,1.285824
12686575,32767,19442,6258,-25,-44,-9,0.972211,1.016007,1.285862
12702202,32767,19472,6294,-26,-44,-10,0.977085,1.015972,1.285952
12717828,32767,19438,6318,-24,-44,-9,0.979284,1.016022,1.285839
12733453,32767,19402,6260,-25,-45,-9,0.984871,1.015988,1.285840
12749080,32767,19434,6302,-26,-45,-8,0.987461,1.015909,1.285803
12764706,32767,19408,6290,-26,-43,-9,0.993096,1.016080,1.285888
12780332,32767,19430,6316,-26,-46,-9,0.997802,1.016052,1.285738
12795959,32767,19422,6240,-25,-44,-8,1.000357,1.015973,1.285701
12811585,32767,19456,6358,-24,-45,-10,1.005825,1.015939,1.285702
12827211,32767,19402,6252,-25,-45,-10,1.008736,1.015985,1.285740
12842837,32767,19462,6300,-25,-44,-9,1.013877,1.016031,1.285750
12858464,32767,19454,6282,-25,-44,-8,1.016391,1.015952,1.285712
12874090,32767,19402,6274,-25,-44,-10,1.020900,1.015966,1.285718
12889717,32767,19418,6244,-25,-45,-9,1.023393,1.015887,1.285680
12905343,32767,19436,6272,-25,-43,-9,1.031296,1.015979,1.285729
12920969,32767,19392,6242,-25,-43,-10,1.034127,1.016024,1.285767
12936596,32767,19442,6340,-25,-43,-9,1.036530,1.015988,1.285886
12952222,32767,19412,6296,-25,-44,-9,1.041579,1.015992,1.285740
12967848,32767,19404,6308,-25,-44,-9,1.043562,1.016042,1.285628
12983473,32767,19358,6224,-25,-44,-9,1.048774,1.016009,1.285628
12999099,32767,19430,6308,-25,-44,-9,1.050933,1.016010,1.285600
13014725,32767,19432,6218,-25,-44,-9,1.055283,1.015982,1.285449
13030351,32767,19388,6278,-25,-45,-10,1.060422,1.015948,1.285450
13045977,32767,19416,6298,-25,-44,-9,1.063156,1.015994,1.285489
13061603,32767,19436,6332,-25,-44,-10,1.067999,1.016040,1.285499
13077228,32767,19432,6268,-25,-43,-8,1.070310,1.016003,1.285617
13092855,32767,19428,6316,-25,-45,-9,1.075359,1.015970,1.285618
13108480,32767,19460,6304,-25,-46,-8,1.078045,1.016015,1.285656
13124107,32767,19414,6300,-25,-43,-8,1.082808,1.016062,1.285667
13139733,32767,19382,6276,-25,-45,-10,1.084304,1.015988,1.285478
13167459,32767,19394,6252,-25,-45,-9,1.096579,1.016047,1.285528
13183086,32767,19440,6340,-25,-45,-8,1.096579,1.016047,1.285528
13198711,32767,19430,6332,-25,-45,-9,1.098856,1.015968,1.285489
13214337,32767,19444,6252,-26,-45,-9,1.103724,1.015934,1.285489
13229962,32767,19426,6226,-24,-45,-9,1.108293,1.016022,1.285657
13245587,32767,19454,6238,-26,-43,-10,1.110911,1.016026,1.285539
13261213,32767,19408,6218,-24,-45,-8,1.115660,1.016034,1.285696
13276839,32767,19440,6292,-25,-45,-10,1.117881,1.015955,1.285657
13292465,32767,19404,6342,-26,-44,-9,1.124115,1.016053,1.285557
13308092,32767,19428,6298,-26,-44,-9,1.126631,1.016098,1.285596
13323718,32767,19390,6262,-25,-45,-10,1.128818,1.016020,1.285557
13339345,32767,19440,6226,-24,-45,-9,1.131318,1.016065,1.285596
13354972,32767,19428,6300,-24,-46,-8,1.135767,1.016111,1.285607
13370599,32767,19458,6226,-25,-44,-9,1.140355,1.016119,1.285764
13386226,32767,19498,6294,-25,-44,-9,1.142297,1.016120,1.285736
13401852,32767,19444,6230,-26,-44,-9,1.146884,1.016086,1.285736
13417479,32767,19396,6316,-26,-45,-9,1.151440,1.016053,1.285736
13433104,32767,19434,6284,-24,-44,-8,1.153514,1.016015,1.285854
13448730,32767,19426,6298,-24,-44,-9,1.155966,1.016020,1.285736
13464356,32767,19414,6296,-25,-45,-10,1.159446,1.016072,1.285596
13479981,32767,19428,6206,-26,-44,-10,1.163915,1.016039,1.285596
13495608,32767,19456,6284,-27,-44,-9,1.165950,1.016001,1.285714
13511234,32767,19420,6200,-28,-44,-9,1.170375,1.015968,1.285714
13526859,32767,19408,6234,-29,-43,-8,1.172575,1.016051,1.285608
13542485,32767,19404,6248,-28,-43,-10,1.179284,1.016063,1.285647
13558111,32767,19392,6348,-27,-44,-8,1.181637,1.016068,1.285529
13573738,32767,19452,6308,-25,-44,-9,1.183128,1.016119,1.285419
13589365,32767,19408,6252,-23,-45,-9,-0.426468,-2.725285,-2.139385
13604991,32767,19434,6306,-25,-44,-9,1.189251,1.016087,1.285390
13620617,32767,19428,6326,-25,-44,-10,1.193481,1.016094,1.285547
13636243,32767,19504,6290,-27,-44,-8,1.195458,1.016016,1.285507
13651869,32767,19416,6320,-27,-43,-8,1.199827,1.016145,1.285442
13667494,32767,19406,6234,-25,-44,-9,1.204017,1.016112,1.285441
13683120,32767,19392,6266,-25,-44,-9,1.205961,1.016033,1.285401
13698747,32767,19426,6256,-26,-44,-9,1.208180,1.016078,1.285441
13714373,32767,19430,6272,-23,-44,-10,1.212151,1.016125,1.285453
13729999,32767,19452,6340,-24,-44,-9,1.216227,1.016132,1.285610
13745625,32767,19422,6246,-22,-45,-9,1.218132,1.016053,1.285569
13761251,32767,19424,6258,-25,-44,-9,1.222041,1.016099,1.285581
13776877,32767,19416,6278,-25,-44,-10,1.223899,1.016061,1.285698
13792503,32767,19412,6296,-25,-44,-9,1.229939,1.016112,1.285593
13808130,32767,19420,6242,-27,-45,-8,1.232069,1.016157,1.285633
13823756,32767,19402,6334,-27,-44,-8,1.233896,1.016119,1.285750
13839382,32767,19420,6318,-23,-44,-8,1.237853,1.016086,1.285750
13855013,32767,19432,6316,-24,-44,-9,1.239833,1.016170,1.285645
13870640,32767,19388,6240,-25,-44,-9,1.242943,1.016144,1.285494
13886267,32767,19438,6238,-25,-44,-9,1.245049,1.016149,1.285376
13901894,32767,19428,6278,-24,-44,-9,1.248781,1.016195,1.285389
13917521,32767,19422,6250,-25,-44,-10,1.252348,1.016078,1.285464
13933148,32767,19422,6272,-27,-43,-9,1.254392,1.016123,1.285505
13948775,32767,19332,6302,-26,-44,-8,1.256289,1.016248,1.285559
13964401,32767,19432,6270,-24,-43,-9,1.260086,1.016214,1.285558
13980027,32767,19396,6314,-25,-45,-9,1.263857,1.016181,1.285557
13995654,32767,19436,6300,-24,-45,-9,1.265473,1.016182,1.285529
14011281,32767,19438,6264,-26,-44,-10,1.268029,1.016112,1.285308
14026907,32767,19460,6296,-26,-44,-10,1.266114,1.016017,1.284292
14042533,32767,19406,6282,-26,-44,-9,1.264843,1.016035,1.283598
14058159,32767,19406,6286,-25,-46,-10,1.264206,1.015922,1.283276
14073785,32767,19448,6238,-25,-45,-8,1.262965,1.015899,1.282424
14089412,32767,19450,6326,-25,-44,-9,1.261860,1.015797,1.281559
14105038,32767,19428,6256,-25,-45,-10,1.260710,1.015774,1.281010
14120665,32767,19420,6312,-24,-44,-10,1.259341,1.015588,1.280222
14136290,32767,19462,6292,-25,-45,-10,1.258850,1.015637,1.279837
14163897,32767,19438,6254,-24,-44,-9,1.256239,1.015466,1.278356
14179523,32767,19424,6198,-25,-44,-10,1.255887,1.015437,1.277958
14195148,32767,19408,6286,-25,-44,-9,1.255129,1.015403,1.277650
14210775,32767,19412,6324,-25,-44,-9,1.253912,1.015377,1.276799
14226401,32767,19480,6250,-26,-44,-9,1.253292,1.015264,1.276478
14242028,32767,19428,6214,-24,-44,-8,1.252055,1.015279,1.275785
14257655,32767,19408,6280,-25,-45,-9,1.251438,1.015166,1.275465
14273281,32767,19430,6254,-25,-44,-9,1.250981,1.015174,1.274922
14288908,32767,19402,6362,-25,-45,-9,1.249887,1.015109,1.274217
14304535,32767,19418,6304,-26,-44,-9,1.249137,1.015075,1.273909
14320162,32767,19396,6256,-25,-44,-9,1.248048,1.015010,1.273204
14335789,32767,19428,6354,-25,-45,-9,1.247300,1.014976,1.272896
14351415,32767,19428,6284,-24,-44,-8,1.246849,1.014983,1.272353
14367041,32767,19460,6266,-25,-42,-8,1.246241,1.014869,1.272033
14382667,32767,19436,6208,-26,-44,-8,1.245021,1.014883,1.271341
14398293,32767,19388,6348,-25,-43,-10,1.245021,1.014883,1.271341
14413919,32767,19406,6314,-25,-44,-9,1.243944,1.014817,1.270636
14429545,32767,19400,6234,-24,-44,-8,1.243202,1.014782,1.270329
14445171,32767,19402,6264,-25,-44,-10,1.242730,1.014830,1.269943
14460798,32767,19460,6270,-25,-44,-9,1.242129,1.014716,1.269625
14476424,32767,19408,6244,-26,-44,-9,1.242423,1.014758,1.269389
14492051,32767,19448,6310,-25,-45,-8,1.241683,1.014723,1.269082
14507677,32767,19412,6298,-24,-45,-9,1.241215,1.014771,1.268696
14523303,32767,19430,6330,-25,-46,-8,1.240615,1.014657,1.268378
14538929,32767,19358,6268,-25,-45,-9,1.239878,1.014622,1.268070
14554555,32767,19426,6282,-25,-44,-8,1.240173,1.014664,1.267835
14570181,32767,19436,6230,-25,-43,-10,1.238675,1.014634,1.267378
14585808,32767,19386,6344,-24,-44,-10,1.238840,1.014514,1.267209
14601435,32767,19400,6216,-25,-44,-9,1.238374,1.014561,1.266824
14617060,32767,19448,6254,-24,-44,-9,1.238374,1.014561,1.266824
14632687,32767,19404,6290,-25,-44,-9,1.237780,1.014447,1.266505
14648313,32767,19450,6326,-25,-44,-9,1.237316,1.014494,1.266120
14663939,32767,19432,6282,-26,-45,-9,1.237316,1.014494,1.266120
14679565,32767,19398,6290,-25,-43,-9,1.236608,1.014417,1.265656
14695191,32767,19364,6292,-25,-44,-9,1.235991,1.014344,1.265495
14710816,32767,19402,6334,-25,-45,-8,1.235529,1.014392,1.265110
14726441,32767,19376,6260,-25,-44,-9,1.235555,1.014350,1.264952
14742068,32767,19412,6306,-25,-44,-11,1.235093,1.014397,1.264567
14757694,32767,19442,6284,-26,-44,-9,1.235093,1.014397,1.264567
14773320,32767,19408,6278,-25,-45,-9,1.234504,1.014283,1.264249
14788945,32767,19418,6250,-24,-45,-9,1.234044,1.014330,1.263864
14804572,32767,19462,6332,-25,-45,-8,1.234044,1.014330,1.263864
14820199,32767,19404,6290,-25,-44,-9,1.233316,1.014294,1.263557
14835828,32767,19406,6246,-25,-44,-9,1.233456,1.014215,1.263546
14851455,32767,19442,6290,-25,-44,-9,1.233750,1.014256,1.263310
14867081,32767,19394,6332,-25,-43,-9,1.232997,1.014262,1.263161
14882707,32767,19406,6324,-26,-45,-9,1.232271,1.014226,1.262854
14898333,32767,19388,6268,-26,-45,-9,1.232297,1.014184,1.262697
14927311,32767,19456,6252,-24,-44,-10,1.232297,1.014184,1.262697
14942937,32767,19422,6232,-24,-43,-9,1.231980,1.014152,1.262301
14958564,32767,19410,6286,-25,-45,-10,1.231980,1.014152,1.262301
14974191,32767,19428,6330,-25,-44,-7,1.232005,1.014111,1.262143
14989820,32767,19434,6268,-24,-44,-8,1.231523,1.014199,1.261915
15005447,32767,19478,6278,-25,-44,-9,1.231548,1.014158,1.261758
15021073,32767,19392,6294,-25,-45,-9,1.230940,1.014084,1.261598
15036700,32767,19440,6294,-25,-44,-8,1.230940,1.014084,1.261598
15052326,32767,19436,6232,-25,-44,-9,1.230965,1.014042,1.261441
15067953,32767,19358,6276,-25,-44,-8,1.230217,1.014048,1.261292
15083579,32767,19452,6262,-25,-45,-10,1.230242,1.014006,1.261134
15099206,32767,19428,6260,-25,-44,-9,1.230651,1.014010,1.261045
15114832,32767,19402,6284,-25,-44,-8,1.230651,1.014010,1.261045
15130458,32767,19420,6316,-25,-44,-9,1.229929,1.013974,1.260738
15146084,32767,19434,6238,-25,-44,-9,1.229929,1.013974,1.260738
15161710,32767,19372,6226,-25,-45,-9,1.229929,1.013974,1.260738
15189438,32767,19432,6310,-25,-44,-9,1.229929,1.013974,1.260738
15205065,32767,19442,6340,-25,-44,-9,1.230362,1.013936,1.260492
15220692,32767,19404,6270,-26,-45,-9,1.229616,1.013942,1.260343
15236317,32767,19438,6276,-25,-45,-9,1.229616,1.013942,1.260343
15251943,32767,19436,6226,-24,-45,-9,1.229616,1.013942,1.260343
15267569,32767,19404,6270,-25,-44,-8,1.229641,1.013900,1.260185
15283196,32767,19444,6240,-25,-44,-8,1.229909,1.013983,1.260106
15298822,32767,19434,6276,-25,-44,-10,1.230050,1.013904,1.260096
15314449,32767,19376,6320,-25,-45,-8,1.229304,1.013909,1.259947
15330074,32767,19410,6228,-25,-44,-9,1.229304,1.013909,1.259947
15345701,32767,19426,6282,-25,-45,-8,1.229304,1.013909,1.259947
15361327,32767,19442,6316,-26,-44,-10,1.229304,1.013909,1.259947
15376954,32767,19386,6306,-25,-44,-9,1.229329,1.013868,1.259790
15392581,32767,19426,6308,-24,-44,-9,1.228992,1.013877,1.259551
15408208,32767,19470,6278,-24,-44,-9,1.228992,1.013877,1.259551
15423835,32767,19442,6274,-24,-43,-9,1.229018,1.013835,1.259394
15439461,32767,19420,6318,-25,-44,-9,1.228751,1.013752,1.259473
15455087,32767,19434,6292,-24,-44,-8,1.229018,1.013835,1.259394
15470714,32767,19402,6248,-25,-45,-10,1.229018,1.013835,1.259394
15486341,32767,19414,6332,-25,-45,-9,1.229018,1.013835,1.259394
15501967,32767,19414,6226,-26,-44,-9,1.228299,1.013799,1.259088
15517592,32767,19386,6294,-25,-44,-10,1.229043,1.013793,1.259237
15533218,32767,19448,6216,-25,-45,-9,1.228440,1.013720,1.259078
15548843,32767,19378,6264,-24,-44,-9,1.229184,1.013714,1.259227
15564470,32767,19410,6308,-25,-44,-9,1.228706,1.013803,1.258998
15580096,32767,19390,6322,-25,-45,-8,1.228706,1.013803,1.258998
15595723,32767,19388,6260,-24,-44,-9,1.228706,1.013803,1.258998
15611349,32767,19436,6270,-24,-44,-9,1.228706,1.013803,1.258998
15626976,32767,19422,6352,-25,-45,-9,1.228706,1.013803,1.258998
15642603,32767,19438,6198,-26,-44,-8,1.228706,1.013803,1.258998
15658229,32767,19414,6260,-25,-44,-10,1.228972,1.013886,1.258919
15673855,32767,19456,6242,-26,-45,-10,1.228972,1.013886,1.258919
15689486,32767,19420,6248,-25,-44,-9,1.228972,1.013886,1.258919
15705112,32767,19406,6264,-25,-44,-9,1.228972,1.013886,1.258919
15720737,32767,19420,6258,-25,-45,-10,1.228972,1.013886,1.258919
15736364,32767,19430,6286,-24,-45,-10,1.229113,1.013807,1.258909
15751990,32767,19388,6200,-25,-45,-8,1.229138,1.013765,1.258752
15767615,32767,19428,6302,-26,-45,-9,1.229138,1.013765,1.258752
15783241,32767,19434,6240,-25,-44,-9,1.229404,1.013848,1.258672
15798867,32767,19414,6304,-24,-45,-9,1.229138,1.013765,1.258752
15814493,32767,19438,6240,-24,-44,-10,1.229138,1.013765,1.258752
15830119,32767,19384,6278,-25,-44,-9,1.229138,1.013765,1.258752
15845744,32767,19436,6350,-25,-44,-10,1.229138,1.013765,1.258752
15861371,32767,19450,6232,-25,-44,-9,1.228662,1.013854,1.258523
15876996,32767,19456,6328,-25,-45,-9,1.228803,1.013775,1.258513
15892623,32767,19420,6312,-25,-45,-8,1.228803,1.013775,1.258513
15908249,32767,19440,6292,-26,-43,-9,1.228828,1.013733,1.258356
15923876,32767,19452,6378,-25,-44,-8,1.228828,1.013733,1.258356
15939502,32767,19442,6264,-24,-45,-8,1.228828,1.013733,1.258356
15955128,32767,19430,6208,-25,-44,-9,1.228828,1.013733,1.258356
15970755,32767,19410,6182,-25,-45,-9,1.228828,1.013733,1.258356
15986381,32767,19466,6342,-25,-45,-9,1.228828,1.013733,1.258356
16002007,32767,19414,6354,-25,-45,-10,1.228969,1.013654,1.258346
16017633,32767,19450,6182,-24,-45,-9,1.228969,1.013654,1.258346
16033259,32767,19412,6250,-24,-44,-9,1.229685,1.013691,1.258652
16048886,32767,19430,6334,-25,-45,-9,1.229710,1.013649,1.258495
16064513,32767,19422,6252,-25,-45,-9,1.228969,1.013654,1.258346
16080140,32767,19402,6226,-26,-45,-10,1.229233,1.013737,1.258267
16095766,32767,19446,6262,-25,-44,-9,1.229950,1.013774,1.258573
16111392,32767,19416,6296,-26,-44,-9,1.229950,1.013774,1.258573
16127018,32767,19412,6286,-25,-44,-8,1.230115,1.013653,1.258406
16142645,32767,19450,6290,-24,-45,-8,1.229374,1.013658,1.258257
16158271,32767,19420,6246,-25,-45,-8,1.229374,1.013658,1.258257
16173897,32767,19406,6298,-25,-45,-9,1.230115,1.013653,1.258406
16201479,32767,19414,6336,-24,-44,-8,1.229639,1.013741,1.258177
16217106,32767,19446,6284,-24,-45,-8,1.229639,1.013741,1.258177
16232731,32767,19400,6254,-25,-45,-9,1.229639,1.013741,1.258177
16248357,32767,19452,6284,-25,-45,-9,1.229639,1.013741,1.258177
16263984,32767,19386,6312,-25,-45,-9,1.229639,1.013741,1.258177
16279610,32767,19410,6376,-25,-44,-9,1.229639,1.013741,1.258177
16295236,32767,19424,6298,-25,-44,-8,1.229779,1.013663,1.258167
16310862,32767,19444,6314,-25,-44,-8,1.229779,1.013663,1.258167
16326488,32767,19438,6226,-24,-45,-11,1.229779,1.013663,1.258167
16342115,32767,19442,6320,-25,-45,-10,1.229779,1.013663,1.258167
16357741,32767,19416,6244,-25,-44,-11,1.229779,1.013663,1.258167
16373367,32767,19430,6328,-25,-44,-9,1.229779,1.013663,1.258167
16388994,32767,19410,6260,-24,-46,-9,1.229779,1.013663,1.258167
16404621,32767,19436,6266,-24,-45,-9,1.229779,1.013663,1.258167
16420248,32767,19402,6284,-25,-43,-10,1.230183,1.013667,1.258078
16435874,32767,19418,6346,-25,-45,-9,1.230183,1.013667,1.258078
16451499,32767,19396,6302,-25,-46,-10,1.230924,1.013662,1.258227
16467126,32767,19458,6222,-26,-44,-9,1.230924,1.013662,1.258227
16482752,32767,19416,6290,-25,-45,-9,1.230924,1.013662,1.258227
16498379,32767,19422,6332,-24,-45,-8,1.230924,1.013662,1.258227
16514005,32767,19404,6232,-26,-45,-7,1.230924,1.013662,1.258227
16529631,32767,19396,6308,-25,-45,-8,1.230924,1.013662,1.258227
16545257,32767,19424,6320,-25,-45,-10,1.230924,1.013662,1.258227
16560883,32767,19464,6290,-25,-45,-9,1.230924,1.013662,1.258227
16576510,32767,19412,6236,-25,-46,-9,1.231063,1.013583,1.258217
16592137,32767,19380,6294,-26,-44,-9,1.231327,1.013666,1.258137
16607763,32767,19376,6278,-25,-45,-9,1.231327,1.013666,1.258137
16623389,32767,19418,6292,-25,-44,-10,1.231327,1.013666,1.258137
16639015,32767,19398,6260,-26,-44,-8,1.231327,1.013666,1.258137
16654641,32767,19438,6280,-25,-45,-9,1.231327,1.013666,1.258137
16670266,32767,19450,6272,-25,-45,-9,1.231590,1.013749,1.258058
16685891,32767,19376,6304,-25,-45,-8,1.231730,1.013670,1.258048
16701518,32767,19432,6312,-26,-46,-9,1.231730,1.013670,1.258048
16717144,32767,19410,6328,-25,-44,-9,1.231730,1.013670,1.258048
16732771,32767,19394,6288,-26,-45,-10,1.231730,1.013670,1.258048
16748397,32767,19434,6298,-24,-45,-9,1.231730,1.013670,1.258048
