x_90d_tur,,,,,,,,,
Module: E0:5A:1B:76:51:80 (05),,,,,,,,,
t(us),ax,ay,az,gx,gy,gz,y,p,r
1,-998,19728,5948,-4,1,-24,-0.000333,0.013918,0.012695
15628,674,19746,5932,24,70,-28,-0.003207,0.093516,0.058038
31254,936,19436,6214,28,86,-2,-0.003903,0.107915,0.067682
46881,684,19308,6092,21,68,-2,-0.006283,0.136353,0.086547
62508,-223,19394,6180,-37,69,3,-0.007717,0.150629,0.095663
78134,-901,19770,6308,-48,16,-13,-0.010623,0.178825,0.112826
93760,266,19840,6490,-19,-124,-31,-0.012066,0.19345,0.121638
109387,-526,19444,6756,-5,-242,8,-0.015472,0.225383,0.139793
125013,-473,19532,6634,-44,-135,20,-0.015472,0.225383,0.139793
140640,338,19580,6414,-23,43,0,-0.022359,0.273456,0.165812
156267,-153,19674,6236,6,115,-19,-0.027259,0.299667,0.183418
171893,-742,19566,6118,-21,75,-52,-0.029748,0.311947,0.192641
187520,144,19726,6174,-53,-24,-32,-0.034294,0.337284,0.210494
203147,-570,19746,6356,-47,-95,19,-0.036755,0.350614,0.219088
218778,158,19670,6260,-31,-136,51,-0.043386,0.378524,0.236356
234404,476,19780,6174,-31,-157,46,-0.047142,0.392687,0.245075
250038,-412,19652,6006,-20,-109,5,-0.058661,0.434229,0.271603
265664,-540,19444,5886,-29,-8,10,-0.062296,0.446844,0.280679
281290,-204,19350,6068,-57,75,13,-0.06607,0.458492,0.289304
296916,208,19674,6384,-71,101,7,-0.073544,0.479947,0.305553
312542,329,19914,6544,-44,66,-13,-0.07716,0.490218,0.313701
328168,573,19772,6370,20,24,-30,-0.084932,0.510775,0.331454
343793,-931,19712,6304,-29,-7,-25,-0.088774,0.521029,0.34088
359419,606,19498,6240,-80,-81,2,-0.096731,0.542085,0.358669
375045,459,19548,6470,-50,-165,21,-0.105157,0.564301,0.375354
390672,562,19478,6098,5,-195,1,-0.109917,0.57596,0.384127
406298,-941,19570,6170,11,-168,-21,-0.119786,0.598765,0.403258
421924,-851,19620,6142,-11,-70,-37,-0.124614,0.609503,0.413074
437550,-50,19712,6218,3,34,-47,-0.133677,0.62803,0.431819
453177,170,19460,6180,-3,-16,-27,-0.138237,0.636257,0.441158
468804,558,19394,6328,3,-83,1,-0.148169,0.653605,0.459351
484431,477,19626,6646,-42,-93,3,-0.153458,0.662628,0.468509
500056,948,19784,6348,-23,-25,-6,-0.168638,0.688015,0.494898
515683,-321,19618,6144,-53,34,-16,-0.173644,0.695429,0.503384
531309,-786,19564,6152,-38,8,-8,-0.178351,0.702522,0.511597
546935,90,19550,5992,5,-23,1,-0.188507,0.716737,0.528749
562562,547,19774,6020,10,-30,11,-0.194242,0.723997,0.537583
578189,270,19518,6406,-28,-22,-16,-0.20577,0.738107,0.555531
593816,-401,19536,6646,-53,-49,-63,-0.210666,0.744722,0.564058
609443,-11,19604,6478,-16,-86,-105,-0.219578,0.757314,0.581694
625070,628,19578,5804,1,-66,-72,-0.228615,0.769398,0.600806
640696,-471,19864,5952,-54,-66,-19,-0.2339,0.775546,0.610084
656323,-643,19860,6516,-49,-44,7,-0.24426,0.787684,0.627244
671950,708,19568,6742,-35,-29,12,-0.249527,0.793394,0.635276
687576,-746,19442,6318,-5,-15,-25,-0.260296,0.804099,0.651011
703203,-816,19488,5992,-20,-45,-53,-0.265512,0.808946,0.659226
718829,45,19734,6006,-23,-103,-83,-0.27556,0.818947,0.676919
734456,568,19934,6158,4,-142,-29,-0.286074,0.829427,0.695612
750082,927,19726,6516,7,-112,4,-0.291994,0.834769,0.704852
765708,-124,19532,6698,0,-75,10,-0.291994,0.834769,0.704852
781333,25,19826,6442,50,-41,5,-0.309687,0.849337,0.729845
796960,453,19596,5834,159,-54,17,-0.322896,0.8577,0.746914
812587,-205,19454,5630,110,-24,10,-0.33077,0.862003,0.756432
828213,579,19746,6386,39,66,6,-0.344876,0.869769,0.773531
843839,-229,19796,6978,-7,84,-5,-0.350337,0.872652,0.780309
859465,288,19820,6758,72,9,-17,-0.359654,0.877627,0.792278
875091,-985,19668,6690,175,-92,-26,-0.371586,0.88346,0.807952
890717,-926,19324,6186,326,-184,-46,-0.371586,0.88346,0.807952
906344,575,19600,6072,339,-120,-25,-0.398731,0.894744,0.841857
921970,17,20150,6140,290,-46,-44,-0.40865,0.898151,0.853318
937596,-919,20344,5766,261,28,-41,-0.42542,0.903044,0.873532
953223,-998,20432,5598,135,55,-82,-0.432736,0.904807,0.882927
968850,533,20786,6374,99,38,1,-0.443591,0.907468,0.898683
984476,923,20504,6058,203,-19,51,-0.455621,0.911325,0.912763
1000103,-790,19820,5926,328,-54,1,-0.463772,0.913996,0.920893
1027702,-472,20072,6254,223,-107,-17,-0.463772,0.913996,0.920893
1043329,-689,20468,5826,147,-56,-49,-0.497655,0.92348,0.9587
1058955,-532,21424,5844,192,14,-3,-0.509497,0.926691,0.974374
1074582,69,21160,6350,275,-79,63,-0.522989,0.929733,0.989869
1090208,-384,20722,6658,386,-118,82,-0.531769,0.932098,0.998738
1105833,-607,20720,6218,396,-50,24,-0.551243,0.936944,1.017526
1121459,672,20670,6052,397,129,8,-0.559669,0.938346,1.026075
1137085,810,21256,5916,459,174,-2,-0.574741,0.939397,1.040339
1152710,960,21688,6468,535,52,48,-0.591412,0.940376,1.056273
1168335,144,22000,6838,536,-170,73,-0.601114,0.941862,1.066017
1183961,-628,21604,6162,761,-128,101,-0.623625,0.946129,1.08891
1199587,-101,21270,5606,833,11,56,-0.636928,0.948215,1.101566
1215214,88,21580,5498,766,85,-19,-0.660382,0.950077,1.125026
1230840,685,22128,6590,578,57,-58,-0.669629,0.950064,1.135368
1246467,-903,22626,6930,474,-171,-31,-0.683353,0.949559,1.153066
1262094,-815,23238,6152,488,-261,-3,-0.690706,0.950135,1.163352
1277721,895,22918,5412,676,-84,17,-0.716592,0.952113,1.197043
1293347,-862,22760,4690,974,175,-72,-0.725696,0.95144,1.208475
1308973,696,23164,5844,912,162,-94,-0.734215,0.950081,1.219587
1324600,-681,23324,6688,727,-127,-5,-0.748699,0.947638,1.240118
1340226,-305,23750,5840,598,-284,39,-0.756768,0.948049,1.250927
1355853,-976,24292,5130,607,-192,-45,-0.772603,0.949587,1.273519
1371480,851,24038,4794,763,39,-142,-0.779023,0.948991,1.284416
1387106,-324,23526,4304,943,202,-166,-0.789003,0.94485,1.303866
1402731,896,24334,5028,930,118,-86,-0.799727,0.940906,1.323097
1418357,-791,24882,6310,645,-365,54,-0.806293,0.940332,1.333491
1433983,650,24534,5146,466,-434,80,-0.821246,0.942226,1.356038
1449609,-711,25262,4446,410,-252,29,-0.828204,0.943315,1.366462
1465235,-864,25182,3912,611,-29,-23,-0.837415,0.943246,1.382708
1480862,468,25260,4272,822,89,-28,-0.841605,0.942314,1.390413
1496489,-394,25772,5748,925,-30,30,-0.850524,0.9402,1.40685
1512114,-952,25286,5902,864,-272,121,-0.856568,0.939929,1.416611
1537903,-511,25918,4580,624,-295,44,-0.882648,0.942448,1.458073
1553533,339,26622,3868,584,-69,-17,-0.8866,0.941894,1.466179
1569158,536,27300,4596,817,176,-67,-0.888526,0.940332,1.472189
1584784,-246,26492,5240,986,80,1,-0.891199,0.936425,1.48265
1600410,868,25930,5112,970,-248,68,-0.894825,0.935382,1.490685
1616039,223,26328,3988,933,-335,100,-0.907184,0.935638,1.513597
1631666,232,26990,3258,848,-138,-3,-0.913512,0.935897,1.525657
1647292,29,27802,2942,772,119,-129,-0.91943,0.933359,1.542248
1662919,-465,28966,3856,947,197,-109,-0.917663,0.927574,1.550003
1678544,-457,28694,4664,1060,-116,52,-0.917784,0.924934,1.555618
1694169,-558,27772,3934,1073,-360,93,-0.925678,2.218457,1.576169
1709796,-607,27326,2698,1046,-89,-13,-0.931243,2.218781,1.588994
1725421,-456,27544,2754,891,193,-143,-0.935954,2.221457,1.606055
1741046,-685,28578,2536,968,222,-161,-0.935022,2.223828,1.609604
1756672,-633,30412,2404,1025,156,-83,-0.933097,2.228966,1.618301
1772299,468,30502,2446,1129,26,-22,-0.934083,2.233461,1.632697
1787926,205,28894,2676,1267,18,6,-0.936064,2.235091,1.642195
1803552,-111,28634,2048,1136,107,-53,-0.939605,2.237872,1.66048
1819179,-739,28218,1398,917,157,-116,-0.940121,2.239383,1.666881
1834806,355,29340,938,542,146,-140,-0.938162,2.243103,1.674018
1850432,-776,31510,1496,438,-2,-134,-0.935684,2.245446,1.674303
1866058,-510,31924,1788,722,-153,59,-0.93148,2.250828,1.678347
1881684,-271,30492,1200,854,-124,42,-0.93228,2.252177,1.684559
1897310,-628,29518,1178,880,16,-12,-0.934538,2.255574,1.703381
1912937,59,30156,262,757,8,25,-0.935011,2.256262,1.708016
1928563,-578,31314,22,540,6,-49,-0.935123,2.257123,1.712207
1944189,-54,31858,456,473,-37,-31,-0.932178,2.260962,1.716429
1959816,-78,32767,688,753,-96,13,-0.930726,2.262879,1.718499
1975443,-693,32368,308,1193,-39,169,-0.931174,2.265638,1.730208
1991070,203,31656,-92,1558,28,207,-0.933803,2.265522,1.740218
2006697,-342,30668,400,1414,-60,185,-0.941051,2.263992,1.765183
2034304,-840,31886,-326,383,-320,30,-0.941051,2.263992,1.765183
2049931,640,32500,-1334,331,-254,-1,-0.945288,2.266408,1.790872
2065558,-549,32767,-1550,537,-83,-22,-0.942437,2.270883,1.795326
2081184,588,32670,-1424,703,17,11,-0.940667,2.272998,1.797831
2096811,923,32767,-836,894,32,51,-0.938599,2.275634,1.804272
2112437,-257,32767,-578,953,-30,124,-0.938096,2.276551,1.808838
2128063,477,32036,-1096,732,-184,213,-0.938746,2.277299,1.819882
2143690,-398,32076,-2200,359,-222,116,-0.941086,2.276953,1.829617
2159316,-941,32528,-2346,171,-111,2,-0.939048,2.279159,1.830353
2174941,-629,32767,-2020,375,101,-125,-0.935919,2.281452,1.828128
2190568,305,32767,-1696,821,78,-102,-0.93237,2.283841,1.826607
2206194,-603,32767,-1380,1233,-122,73,-0.92878,2.287714,1.834365
2221820,-997,32396,-2878,1305,-247,143,-0.930014,2.288323,1.844807
2237445,-445,32220,-3712,849,146,-192,-0.932311,2.290161,1.866742
2253071,389,32767,-3332,523,170,-201,-0.925723,2.295126,1.870179
2268698,-772,32767,-3920,389,5,-128,-0.921719,2.297784,1.868518
2284324,26,32767,-4472,521,-44,-95,-0.915728,2.302529,1.867793
2299950,-328,32767,-4332,1085,38,19,-0.913643,2.304687,1.870322
2315576,-356,32767,-3814,1632,121,173,-0.913876,2.305594,1.886356
2331201,-921,32767,-4018,2227,178,316,-0.916104,2.30407,1.899467
2346827,381,32458,-4318,2397,116,363,-0.923696,2.298247,1.935856
2362454,-855,32728,-5550,1473,-195,279,-0.930727,2.293351,1.974056
2378079,425,32767,-6092,761,-420,119,-0.932114,2.29327,1.98615
2393706,-231,32767,-6852,425,-458,47,-0.931407,2.29714,2.000219
2409332,-443,32767,-6756,441,-391,-5,-0.929919,2.300075,2.004058
2424959,604,32767,-7170,874,-174,-25,-0.926368,2.305588,2.011684
2440586,123,32767,-6084,1299,-3,-66,-0.924434,2.307683,2.017922
2456212,716,32438,-6230,1277,58,-70,-0.92007,2.310451,2.032616
2471839,-642,32767,-7512,585,40,-191,-0.917479,2.311645,2.037789
2487465,-417,32767,-7852,-186,9,-178,-0.909188,2.316544,2.033186
2503090,91,32767,-7116,-5,-79,5,-0.901354,2.32103,2.017738
2518717,-972,32767,-7284,540,-154,142,-0.901354,2.32103,2.017738
2534343,497,32767,-7520,1100,-4,105,-0.899272,2.322064,2.021311
2549969,-969,32767,-7964,1497,157,87,-0.898888,2.321689,2.028751
2565596,-116,32767,-9174,1664,280,26,-0.897553,2.320029,2.048135
2581223,-760,32767,-9648,1222,269,16,-0.896083,2.319297,2.057547
2596850,-336,32767,-10334,441,-24,-27,-0.892323,2.318939,2.066888
2612477,631,32767,-10030,417,-116,-55,-0.887457,2.32223,2.067727
2628104,52,32767,-9742,635,-61,-80,-0.884818,2.324373,2.068352
2643731,-732,32767,-9892,919,1,-107,-0.879105,2.328271,2.073315
2659357,-451,32767,-9622,1187,73,-100,-0.87598,2.330092,2.07792
2674984,346,32767,-9630,1200,74,-21,-0.870169,2.332302,2.090273
2690610,335,32767,-10824,969,19,63,-0.868075,2.332647,2.096553
2706237,-460,32767,-10874,380,-14,22,-0.865167,2.332879,2.104873
2721863,-775,32767,-10270,143,-113,40,-0.861649,2.334895,2.101221
2737490,313,32767,-10316,278,-42,33,-0.86016,2.335938,2.098951
2753117,-687,32767,-10564,476,-18,42,-0.857265,2.336996,2.096488
2768743,167,32767,-11250,411,-70,21,-0.85404,2.338412,2.097548
2784369,-995,32767,-11516,303,-54,15,-0.852366,2.339456,2.097505
2799996,961,32767,-11444,211,-76,10,-0.850643,2.340481,2.096833
2815622,620,32767,-11622,-77,-95,36,-0.847595,2.342469,2.092885
2831249,-754,32767,-11256,-258,-114,73,-0.84628,2.343521,2.088392
2846876,-187,32767,-10790,-152,-53,62,-0.845104,2.344528,2.077574
2862501,234,32767,-11250,-43,-3,-14,-0.843178,2.34544,2.067573
2878128,-630,32767,-11738,155,36,-60,-0.843178,2.34544,2.067573
2893755,-362,32767,-11936,382,-53,-16,-0.837437,2.34861,2.059499
2909380,405,32767,-11950,448,-104,100,-0.835992,2.349694,2.061201
2925007,410,32767,-11782,86,-92,149,-0.835216,2.350135,2.065637
2940634,-84,32767,-11458,-194,-59,54,-0.835359,2.34993,2.063951
2956260,531,32767,-11444,-74,-14,-63,-0.833548,2.351151,2.054272
2971886,-49,32767,-12182,269,-51,-8,-0.830063,2.353463,2.049147
2987512,-291,32767,-12270,418,-64,21,-0.828646,2.354464,2.049821
3015290,584,32767,-11752,179,-75,28,-0.828646,2.354464,2.049821
3030915,169,32767,-11078,-375,-116,3,-0.824482,2.357355,2.054244
3046542,-711,32767,-11672,-483,-223,-33,-0.822622,2.359495,2.040679
3062173,462,32767,-11484,-57,-101,-68,-0.81982,2.363148,2.02952
3077799,296,32767,-11770,285,-15,-7,-0.818186,2.364543,2.027241
3093424,-859,32767,-11988,273,-47,53,-0.816403,2.365428,2.02828
3109050,-360,32767,-11932,202,-55,32,-0.815904,2.365667,2.029247
3124677,835,32767,-11864,-109,-58,-36,-0.814584,2.366562,2.028548
3140304,-931,32767,-11372,-380,-65,-69,-0.811747,2.368987,2.018427
3155930,-865,32767,-11518,-164,-101,-8,-0.810539,2.370158,2.012947
3171555,191,32767,-11732,89,-31,32,-0.809665,2.370872,2.009115
3187182,-208,32767,-11974,85,8,-13,-0.80911,2.371135,2.008298
3202809,885,32767,-12304,-83,-47,-14,-0.807518,2.371963,2.00532
3218436,-195,32767,-11730,-194,-118,6,-0.806777,2.372696,2.002741
3234062,-785,32767,-11472,-90,-110,11,-0.805744,2.374132,1.997774
3249687,802,32767,-11298,-68,-46,0,-0.804614,2.375223,1.993685
3265313,-455,32767,-11438,-205,28,-24,-0.804101,2.375424,1.990323
3280939,318,32767,-11348,-541,29,-48,-0.803231,2.375849,1.985352
3296565,-269,32767,-11282,-681,-20,-65,-0.80143,2.376864,1.970531
3312192,220,32767,-11320,-733,-58,-105,-0.799032,2.378905,1.952651
3327818,945,32767,-11344,-667,-178,-61,-0.797792,2.380217,1.944276
3343444,-616,32767,-10754,-556,-202,-28,-0.796196,2.382762,1.931785
3359069,-938,32767,-10458,-495,-120,52,-0.795803,2.383731,1.926962
3374696,-26,32767,-10178,-448,-75,73,-0.797094,2.382735,1.912137
3390322,651,32767,-9432,-752,-67,49,-0.797456,2.382271,1.904632
3405948,-60,32767,-9400,-1495,-145,-62,-0.797086,2.382458,1.893426
3421574,-719,32767,-9460,-1641,-86,-152,-0.794125,2.38466,1.861647
3437200,-704,32767,-9612,-1139,-33,-106,-0.791845,2.386135,1.844837
3452827,-439,32767,-9886,-378,38,-8,-0.789071,2.387671,1.82396
3468452,-755,32767,-10192,336,106,56,-0.789281,2.387299,1.821966
3484078,-877,32767,-10020,240,182,-49,-0.791171,2.385466,1.828608
3499705,-645,32767,-9188,-404,32,-109,-0.789558,2.386316,1.825575
3515331,-923,32767,-8600,-936,-159,-42,-0.788473,2.387233,1.81918
3530958,-130,32767,-8026,-1181,-197,2,-0.787794,2.387532,1.800759
3546584,-363,32767,-7814,-893,-158,-54,-0.787216,2.387626,1.790398
3562211,-338,32767,-8032,-453,-75,-47,-0.785631,2.388561,1.776597
3577837,161,32767,-8024,-195,14,6,-0.785438,2.388646,1.773497
3593464,-596,32767,-7622,-291,12,50,-0.78632,2.387529,1.770653
3609089,930,32767,-7030,-921,-156,64,-0.787342,2.385757,1.760934
3624716,290,32767,-7182,-1650,-167,-44,-0.78663,2.385628,1.749554
3640342,242,32767,-6932,-1664,40,-82,-0.784675,2.385876,1.733418
3655969,190,32767,-7592,-830,141,-2,-0.779765,2.386357,1.702095
3671596,-846,32767,-7672,-515,217,39,-0.778757,2.384902,1.687038
3687223,-900,32767,-5954,-923,18,108,-0.778981,2.383722,1.681567
3702848,781,32767,-4684,-1210,-276,122,-0.779737,2.380538,1.665763
3718475,-90,32767,-5014,-1570,-285,-87,-0.779699,2.379347,1.656399
3734100,-566,31944,-5332,-1574,-74,-181,-0.769738,2.382221,1.616938
3749725,878,32767,-4454,-1600,-98,-20,-0.766993,2.382009,1.602789
3765351,873,32767,-4296,-1360,-181,140,-0.765613,2.380723,1.590567
3780977,-895,32767,-4770,-972,-181,109,-0.766228,2.376458,1.574994
3796602,200,32767,-4308,-1135,-8,-32,-0.765942,0.766322,1.569145
3812228,835,32767,-3182,-1512,96,-82,-0.76097,0.766457,1.549552
3827855,62,32767,-2612,-1648,84,-83,-0.756365,0.76593,1.534795
3843482,836,32354,-2920,-1324,118,-101,-0.742559,0.764398,1.493479
3859108,-116,32244,-4384,-1168,86,-94,-0.739336,0.764154,1.484299
3874735,-683,32767,-3460,-1475,36,-95,-0.735581,0.763806,1.474579
3890361,248,32767,-1456,-1748,-185,-109,-0.731106,0.763407,1.463003
3905988,-997,32767,-862,-1618,-90,-108,-0.720678,0.762954,1.437734
3921613,-648,31612,-858,-1386,127,-156,-0.709318,0.761957,1.412962
3937240,-741,30670,-1280,-1467,251,-95,-0.703441,0.760963,1.400836
3952866,-82,31610,64,-1755,164,14,-0.692809,0.761766,1.372572
3980474,-429,32726,1650,-1205,-471,12,-0.692809,0.761766,1.372572
3996100,-405,30122,198,-837,-561,145,-0.67444,0.766484,1.331159
4011727,9,29634,-238,-1313,-362,173,-0.678427,0.775066,1.330562
4027354,74,29938,1256,-1963,-16,-36,-0.676753,0.778924,1.322692
4042980,-166,30110,2314,-2028,191,-112,-0.65905,0.780482,1.289714
4058606,-25,30100,2586,-1761,258,-42,-0.647814,0.779996,1.27093
4074233,-756,30380,1994,-1630,26,2,-0.629298,0.780387,1.239136
4089860,296,30390,1756,-1597,-218,88,-0.621937,0.781832,1.227139
4105487,365,28294,2066,-1267,-295,216,-0.610598,0.792825,1.20406
4121114,-782,27292,2314,-1467,-168,149,-0.60876,0.797838,1.197391
4136741,-576,27156,3656,-1783,166,-132,-0.603384,0.801276,1.187438
4152367,448,27884,5172,-2017,350,-255,-0.576957,0.799948,1.155553
4167994,-554,27006,4876,-1837,125,-148,-0.559818,0.797874,1.136406
4183620,278,27870,3892,-1422,-100,-13,-0.533843,0.797891,1.108632
4199246,-257,27580,2848,-1293,-230,18,-0.526731,0.800385,1.101226
4214872,-431,25854,4064,-1532,-3,38,-0.50594,0.809354,1.080796
4230498,883,25576,5770,-1704,77,31,-0.49489,0.811528,1.068708
4246125,-142,25624,5672,-1708,-11,35,-0.482134,0.813594,1.054651
4261752,-810,25438,4410,-1647,-44,50,-0.45679,0.818648,1.029383
4277378,-459,25824,3532,-1717,43,9,-0.444775,0.821514,1.018291
4293005,-185,26164,4392,-1646,170,-143,-0.416157,0.824983,0.995314
4308631,-686,25114,6520,-1100,146,-170,-0.400779,0.824745,0.985496
4324258,-267,23432,7684,-671,-15,-70,-0.381501,0.824742,0.975941
4339885,-743,22074,6598,-638,-183,47,-0.37607,0.830402,0.974593
4355511,604,22046,4884,-767,-27,-34,-0.374114,0.83445,0.973827
4371138,740,23260,4682,-913,127,-70,-0.364309,0.839802,0.968827
4386765,-615,24436,5366,-746,140,-119,-0.356905,0.841028,0.964896
4402391,-594,24190,6140,-582,12,-227,-0.344814,0.841583,0.962886
4418016,376,23068,6888,-532,-194,-201,-0.339966,0.84181,0.965045
4433642,303,21294,6668,-770,-294,-74,-0.332496,0.845789,0.97022
4449268,981,20836,5578,-1086,-223,-92,-0.326253,0.849432,0.969587
4464894,-590,22356,5228,-1130,66,-49,-0.293115,0.858292,0.954956
4480520,774,23734,5010,-832,159,-54,-0.282286,0.859605,0.949969
4496147,163,22876,6158,-426,254,-92,-0.275033,0.860293,0.947463
4511773,837,21102,7864,-285,1,-108,-0.269591,0.860456,0.948777
4527400,-245,19862,7586,-504,-323,-128,-0.268605,0.862149,0.95158
4543027,-157,19806,6114,-729,-321,-112,-0.260509,0.869183,0.956055
4558653,648,21778,5506,-663,-133,-64,-0.253745,0.872872,0.956515
4574280,-253,22644,5568,-329,43,33,-0.245388,0.88016,0.960664
4589906,713,22468,5974,14,87,71,-0.250501,0.881858,0.965169
4605532,-82,20130,7164,-122,-71,80,-0.256341,0.883953,0.969977
4621158,-957,18934,7202,-433,-250,72,-0.262557,0.891008,0.976273
4636784,-681,19152,6012,-799,-224,36,-0.260257,0.895556,0.976838
4652411,988,20354,4340,-1020,-122,-10,-0.241879,0.903588,0.971501
4668038,-336,21884,4184,-834,58,-22,-0.228745,0.906425,0.967666
4683664,982,21614,4258,-378,212,1,-0.210601,0.909387,0.96355
4699290,-3,19850,6536,-287,260,10,-0.210601,0.909387,0.96355
4714916,-942,18138,7466,-683,79,113,-0.204943,0.911722,0.962049
4730543,-872,18880,6938,-929,32,98,-0.185634,0.917275,0.949822
4746170,-291,20738,5662,-670,62,23,-0.17242,0.919995,0.943224
4761797,-587,20882,5076,-314,103,-2,-0.157106,0.923319,0.939567
4777424,82,19608,5840,-83,29,-29,-0.15662,0.924458,0.942331
4793050,881,17180,6756,-367,-52,-20,-0.160494,0.927844,0.950637
4808677,45,16782,7330,-1084,-61,15,-0.154419,0.930524,0.94982
4833547,107,20340,6940,-977,284,-102,-0.071654,0.934407,0.916611
4849174,594,19688,6296,-81,141,-55,-0.064441,0.933349,0.915371
4864800,-971,17854,5570,325,13,-127,-0.068454,0.933871,0.92073
4880426,-347,16738,6226,210,23,-142,-0.088777,0.936238,0.938876
4896051,525,17720,6730,-28,43,-125,-0.095995,0.937529,0.94566
4911677,-475,19494,6644,-157,81,75,-0.099569,0.93971,0.95272
4927303,-594,19404,5824,296,65,153,-0.102163,0.941864,0.954185
4942929,374,18938,5512,741,-44,20,-0.132083,0.946926,0.969352
4970696,433,18696,6352,549,-229,-47,-0.132083,0.946926,0.969352
4986323,-967,18852,6836,617,-225,-51,-0.209289,0.956061,1.022866
5001949,-639,18764,6842,349,-258,13,-0.246531,0.960689,1.047948
5017575,771,19144,6410,8,-217,10,-0.258971,0.963487,1.057135
5033200,-621,19818,5986,-71,-112,16,-0.268747,0.967758,1.06837
5048826,-24,20092,6002,35,-23,14,-0.272104,0.969356,1.072496
5064452,546,19770,6184,359,38,52,-0.284886,0.971526,1.081553
5080078,-996,19348,6374,387,-23,31,-0.311045,0.97367,1.094277
5095704,202,19140,6716,152,-97,20,-0.311045,0.97367,1.094277
5111331,-100,19158,6640,-55,-59,10,-0.33729,0.977757,1.110394
5126957,-821,19750,6316,-88,25,6,-0.339142,0.978807,1.112405
5142584,-247,19824,6480,-86,30,-22,-0.339706,0.979765,1.114588
5158209,-664,19706,6454,-7,-45,-44,-0.34041,0.979989,1.116342
5173835,-504,19512,6338,94,-163,-40,-0.346786,0.980817,1.1238
5189461,-21,19478,6106,83,-150,-28,-0.359338,0.98282,1.135351
5205086,-173,19606,5978,59,-43,38,-0.365449,0.983854,1.14062
5220712,-690,19748,6444,-85,33,59,-0.374031,0.98603,1.145885
5236338,-548,19926,6286,-73,-45,-4,-0.37425,0.986876,1.146166
5251964,-912,19368,5906,13,-179,-47,-0.377641,0.987974,1.151464
5267591,-165,19230,6086,-26,-163,-50,-0.382074,0.988803,1.156797
5283217,-773,19872,5984,-7,5,-28,-0.388326,0.990306,1.164743
5298844,292,19928,6346,46,168,14,-0.389882,0.990205,1.166126
5314471,-577,19582,6558,57,15,20,-0.393488,0.989642,1.166284
5330096,646,19950,6208,17,-77,12,-0.400401,0.990655,1.170102
5345722,315,19818,5822,-34,-40,-13,-0.405872,0.991858,1.175531
5361349,-170,19722,5938,-13,-2,-30,-0.407695,0.991981,1.177529
5376975,629,19590,6456,-27,-7,-15,-0.409027,0.992012,1.179419
5392602,134,19550,6828,-21,-35,10,-0.411215,0.992484,1.181997
5408228,114,19776,6808,58,-77,47,-0.413186,0.993155,1.183435
5423854,790,19538,5784,2,-104,-22,-0.421502,0.99487,1.188744
5439480,-401,19758,5858,-68,-66,-31,-0.42693,0.995871,1.194892
5455107,-391,19830,5826,-12,-2,-28,-0.427545,0.996078,1.196809
5470734,-198,19962,6288,66,42,5,-0.431144,0.996142,1.19994
5486360,514,19618,6424,65,-1,-4,-0.434168,0.996197,1.201298
5501986,-768,19508,6810,-42,-49,-4,-0.439337,0.996619,1.204496
5517612,-504,19502,6750,-82,-162,-7,-0.439461,0.997028,1.20548
5533238,-835,19808,5856,-84,-162,30,-0.441172,0.998669,1.210003
5548863,-898,19926,5610,5,52,42,-0.444404,1.000414,1.213541
5564489,43,20036,6214,72,92,-22,-0.446391,1.000658,1.214033
5580115,-847,19898,6816,123,4,-13,-0.451026,0.999909,1.215753
5595741,-695,19430,6660,-4,-158,11,-0.457917,1.000542,1.220537
5611366,744,19636,6066,-75,-159,15,-0.459843,1.001487,1.223225
5626992,625,19710,6012,-83,0,8,-0.460849,1.002357,1.225311
5642618,-490,20064,5928,-12,155,-30,-0.458347,1.002312,1.224632
5658245,-153,19788,6046,34,208,-61,-0.457077,1.001349,1.223377
5673871,-581,19926,6700,49,38,-31,-0.454605,0.998948,1.220293
5689498,271,19534,6502,75,-196,-12,-0.459155,0.998522,1.223378
5705123,748,19634,6028,31,-224,-6,-0.464683,0.999443,1.227974
5720749,-912,19926,5876,20,-32,-30,0.993748,-0.695518,0.346747
5736376,462,19820,6290,4,152,-29,-0.474102,1.000078,1.23615
5752002,127,19560,6474,-55,101,-54,-0.471492,0.999309,1.234177
5767628,-577,20304,6332,-82,-88,-81,-0.468471,0.998519,1.232976
5783254,162,20238,6080,22,-151,-22,-0.467363,0.997749,1.236593
5798881,-942,20020,6120,78,-110,4,-0.47465,0.998535,1.243277
5814508,-990,19886,6418,49,-83,-13,-0.47919,0.998965,1.246276
5830135,106,19470,6688,-61,-91,-27,-0.483879,0.999421,1.250216
5845760,425,20052,6348,-142,-120,-44,-0.479989,0.999589,1.25142
5861386,-215,19998,5832,-109,-104,9,-0.478388,0.999775,1.252423
5877013,808,20008,5896,-72,-56,-10,-0.477971,1.000326,1.253431
5892639,-808,19822,6460,-57,-38,-15,-0.477088,1.000715,1.254833
5908264,956,19590,6990,-133,-25,-15,-0.473233,1.000569,1.2542
5923890,-874,19640,6922,-224,-70,-30,-0.468744,1.000564,1.252854
5939517,569,19378,6310,-341,-72,-30,-0.454943,1.000686,1.249304
5955143,208,20002,5714,-404,38,-44,-0.445459,1.00082,1.246747
5982743,-992,20288,6348,-306,47,44,-0.404079,1.000117,1.23216
5998370,-343,19502,7726,-457,-136,41,-0.39456,1.000826,1.229482
6013997,817,18272,6612,-710,-289,-11,-0.380313,1.001756,1.225958
6029623,-80,18740,5378,-804,-157,-16,-0.33968,1.004353,1.218639
6045250,308,19306,5394,-820,114,46,-0.314924,1.005221,1.213004
6060876,-825,19410,6018,-663,295,52,-0.261773,1.005874,1.194307
6076502,848,18706,7080,-389,321,16,-0.2387,1.005199,1.18387
6092127,-181,17292,7200,-338,96,-14,-0.209783,1.00391,1.168705
6107753,343,17294,6322,-801,-46,-146,-0.176472,1.004704,1.15941
6123378,-586,18420,6462,-1260,7,-127,-0.144739,1.004466,1.152731
6139005,-937,19528,6924,-1169,71,-120,-0.052826,1.003099,1.130387
6154632,723,17836,6270,-791,-10,14,-0.011621,1.002022,1.120242
6170258,354,16144,5536,-730,-24,111,0.043056,1.004162,1.107302
6185884,460,16088,4906,-886,51,57,0.067674,1.006742,1.101003
6201511,-632,16910,6018,-1204,156,-90,0.133001,1.009852,1.08299
6217137,152,16840,7238,-1470,-51,-134,0.178664,1.009456,1.07092
6232764,643,16734,6020,-1324,-151,38,0.338714,1.012001,1.037825
6248391,562,16312,4790,-1060,75,95,0.378133,1.014412,1.028569
6264017,690,15286,4480,-879,291,74,0.409773,1.01628,1.019205
6279644,481,14470,4780,-806,391,-21,0.456314,1.017586,0.998809
6295270,-453,14074,5734,-826,280,27,0.475402,1.017273,0.988659
6310897,-898,14786,6022,-1118,47,-64,0.520973,1.018878,0.969228
6326524,289,15328,5956,-1434,-79,-140,0.556935,1.020062,0.96024
6342150,-711,15276,5008,-1351,-88,-62,0.679203,1.024176,0.933856
6357777,-91,13318,4018,-907,82,18,0.707422,1.026289,0.927057
6373404,588,12944,4552,-825,117,-28,0.728569,1.028586,0.920578
6389039,-393,12728,5146,-814,12,-69,0.766468,1.032078,0.909096
6404664,-719,12330,5746,-1105,-144,-135,0.789077,1.034132,0.904774
6420291,-651,12300,5910,-1418,-133,-113,0.849746,1.038964,0.893302
6435916,678,12596,5372,-1558,-39,-14,0.883182,1.041407,0.883387
6451542,-17,12210,4328,-1221,104,38,0.940246,1.046312,0.859564
6467168,-933,11368,4026,-974,90,-34,0.977271,1.050911,0.841708
6482794,864,10908,4716,-760,-67,-168,0.994107,1.053009,0.837749
6498419,-978,10608,5072,-995,-205,-186,1.030953,1.057693,0.835345
6514046,-457,10398,4890,-1273,-202,-127,1.054364,1.06083,0.832708
6529672,60,10960,4690,-1371,-89,-55,1.101079,1.067579,0.820164
6545298,789,11360,3468,-1191,36,-41,1.121136,1.070522,0.811351
6560924,-875,10814,3118,-802,122,18,1.150159,1.07526,0.796708
6576550,117,9438,3208,-821,57,-15,1.159851,1.077729,0.792142
6592176,-235,8492,4430,-1250,-86,-108,1.198627,1.08752,0.775512
6607803,-467,8904,4802,-1600,-206,-218,1.216973,1.090878,0.767507
6623428,590,9632,3820,-1533,-180,-243,1.237329,1.093898,0.759834
6639054,909,9826,2986,-1332,-110,-250,1.274019,1.099254,0.748582
6654680,-8,9254,2028,-1079,-47,-165,1.289915,1.10161,0.745589
6670306,884,8130,2058,-993,-103,-125,1.315278,1.107266,0.740389
6685932,-675,7670,1910,-1197,-289,33,1.328033,1.111519,0.739296
6701558,-424,7820,2764,-1735,-296,55,1.354622,1.124305,0.727883
6717184,504,7746,1664,-2063,-134,233,1.354622,1.124305,0.727883
6732813,726,7536,490,-1876,121,91,1.388413,1.143717,0.682347
6748440,403,6494,68,-1457,100,-181,1.402584,1.150488,0.6516
6764066,-385,7004,128,-1126,-117,-296,1.411901,1.152988,0.64638
6779692,147,6164,-42,-1307,-259,-116,1.434741,1.161174,0.648895
6795318,936,6532,216,-1711,-315,-67,1.445508,1.167347,0.646032
6810944,-201,5888,-968,-1632,-308,46,1.466542,1.181119,0.633808
6826571,-578,5976,-1368,-1429,-163,-98,1.475578,1.188442,0.627723
6842198,499,5274,-1576,-1214,-70,-87,1.498061,1.203939,0.61635
6857824,-143,4800,-1994,-1142,-85,-320,1.50546,1.208483,0.616864
6873450,525,4570,-1808,-1261,-342,-414,1.514813,1.212363,0.621208
6889077,461,4976,-2640,-1051,-418,-410,1.538362,1.222892,0.640545
6904704,-522,5426,-2992,-1248,-168,-325,1.54968,1.228534,0.653143
6920330,-912,5242,-2560,-1412,125,-231,1.566042,1.235939,0.662281
6935957,-314,5004,-1864,-1277,46,48,1.570214,1.237906,0.65797
6963723,-485,2278,-3458,-769,-280,-182,1.583609,1.262512,0.651446
6979350,-457,3722,-4070,-872,-168,-397,1.590752,1.26788,0.662928
6994977,312,5144,-5044,-1038,77,-282,1.598469,1.271575,0.6756
7010604,654,4444,-4064,-876,399,-163,1.60792,1.275402,0.684098
7026231,-513,4464,-3422,-814,294,-179,1.60964,1.27556,0.681373
7041857,-665,3324,-3596,-1241,-94,-53,1.613858,1.278989,0.677796
7057483,-45,2954,-4952,-1248,-239,153,1.618624,1.290577,0.674466
7073110,709,2556,-5990,-1378,-161,181,1.619757,1.29873,0.670444
7088736,973,3814,-6716,-742,63,75,1.621111,1.313668,0.661051
7104362,739,3886,-5430,-603,116,50,1.622246,1.318933,0.662248
7119988,266,3400,-4326,-747,-117,-50,1.625283,1.327813,0.66971
7135615,-251,3374,-5230,-564,-134,-105,1.628122,1.333127,0.678222
7151241,-415,3626,-6222,-687,-81,-146,1.635067,1.342431,0.704787
7166868,-735,2516,-6268,-1202,45,31,1.641028,1.351395,0.72515
7182494,31,526,-7080,-1516,191,132,1.641185,1.35596,0.720944
7198119,896,2060,-6360,-1005,237,211,1.637014,1.365304,0.690878
7213746,-310,2692,-6910,-655,95,194,1.63286,1.374948,0.671514
7229372,917,3120,-7710,-542,28,3,1.633107,1.380203,0.67635
7244998,-75,3220,-7554,-433,79,-5,1.634789,1.384706,0.688252
7260623,467,2574,-8098,-686,57,221,1.636894,1.393366,0.70806
7276250,269,1174,-7992,-675,66,193,1.635589,1.399322,0.707456
7291875,-656,2208,-7940,-794,-7,-60,1.633769,1.410163,0.710026
7307502,-110,2378,-8810,-704,-157,-111,1.6375,1.418828,0.744758
7323128,493,4242,-9568,-689,-129,-110,1.640591,1.423723,0.775542
7338754,359,4296,-9848,-150,92,19,1.646971,1.431356,0.84441
7354381,701,2832,-7966,-125,260,110,1.64845,1.434226,0.869614
7370007,770,1458,-7484,-467,170,114,1.647272,1.440068,0.885875
7385634,-868,1722,-8600,-519,-156,46,1.64629,1.443672,0.892976
7401260,982,3188,-9920,-315,-167,-126,1.648264,1.45333,0.963931
7416886,-874,2862,-8010,-431,-63,-57,1.654685,1.458802,1.075553
7432513,-610,1800,-9084,-323,36,-12,1.656263,1.460981,1.114104
7448139,-82,2514,-8734,-315,33,-49,1.657823,1.46505,1.178062
7473994,-105,2836,-10554,93,-57,-100,1.665808,1.468845,1.380539
7489620,-447,2572,-9282,196,26,-26,1.665808,1.468845,1.380539
7505247,-753,1770,-9480,95,110,164,1.666664,1.469932,1.425028
7520874,67,1792,-7528,-273,31,129,1.664088,1.475213,1.492918
7536501,-300,2390,-9470,-291,-144,-68,1.664333,1.664197,1.578308
7552127,708,2848,-10088,-180,-287,-193,1.666493,1.665085,1.641102
7567753,357,2878,-9998,25,-130,-169,1.673729,1.670798,1.778479
7583378,297,2708,-10836,297,111,82,1.676397,1.673314,1.828492
7599005,-586,2316,-8396,293,147,152,1.674748,1.672005,1.934698
7614631,-717,1486,-8232,52,-62,-26,1.675096,1.672762,1.971175
7630258,-131,1828,-8708,-72,-212,-224,1.676726,1.675033,2.01152
7645885,-999,3292,-9216,-99,-198,-310,1.680288,1.679482,2.05133
7661511,543,2732,-10560,-8,146,-3,1.688239,1.689155,2.10697
7677138,234,3036,-9248,233,301,119,1.688708,1.690883,2.140969
7692764,-167,1862,-7116,336,33,116,1.687494,1.689853,2.15405
7708391,-812,1642,-8220,215,-294,-28,1.686243,1.69069,2.214946
7724016,-282,2902,-9804,-40,-307,-42,1.689397,1.69838,2.295489
7739643,-177,3162,-9456,-104,-31,-20,1.691054,1.702036,2.322466
7755270,912,3328,-9070,74,81,23,1.691994,1.704309,2.338777
7770896,162,2948,-8790,153,-33,60,1.692624,1.706885,2.365085
7786522,-243,2202,-8874,294,-210,-19,1.69364,1.710999,2.407313
7802148,-450,2310,-8442,332,-149,-102,1.69507,1.714648,2.432944
7817774,-806,2400,-8552,43,-63,-40,1.698426,1.721113,2.466068
7833401,-361,2962,-9112,-35,3,5,1.699112,1.723144,2.477493
7849027,139,2918,-9082,1,-49,53,1.700074,1.728765,2.515353
7864653,-488,2658,-8878,167,-159,49,1.700553,1.731347,2.533088
7880280,-347,1786,-8682,170,-193,-56,1.701404,1.734495,2.550805
7895907,609,1462,-7634,-14,-72,-95,1.704391,1.741064,2.574076
7911534,-844,2396,-8508,-155,63,42,1.704909,1.74262,2.57986
7927161,147,2998,-9338,-110,90,39,1.703623,1.743224,2.590137
7942787,516,3436,-9382,17,-7,39,1.703638,1.744093,2.594769
7958413,-333,3332,-8954,148,-156,-25,1.704671,1.748041,2.611252
7986008,539,1654,-7954,40,-90,-158,1.704671,1.748041,2.611252
8001634,241,1918,-8222,-158,74,-43,1.712176,1.761088,2.634506
8017261,-533,2978,-9010,-239,151,21,1.711935,1.761449,2.633552
8032887,-674,3500,-8900,-122,113,119,1.711293,1.761145,2.633999
8048513,939,3584,-8502,63,-109,66,1.70979,1.761533,2.644238
8064139,14,2746,-8070,131,-277,-49,1.710325,1.764004,2.654068
8079766,-943,1938,-7996,30,-196,25,1.713248,1.771248,2.672385
8095393,-275,2354,-8590,0,-3,18,1.713163,1.773245,2.681519
8111019,921,2672,-8780,98,121,15,1.712341,1.774538,2.694976
8126646,452,2916,-8712,167,70,22,1.712085,1.77455,2.698328
8142272,-242,3266,-8646,117,-68,-11,1.712094,1.775043,2.702636
8157898,-963,2234,-7790,14,-137,-19,1.713832,1.7789,2.711063
8173525,751,1448,-7464,-69,-53,3,1.714441,1.780971,2.715646
8189152,839,2208,-7952,-68,-31,9,1.713635,1.782184,2.723766
8204778,-729,2892,-8888,40,-40,39,1.713348,1.782921,2.727759
8220404,523,2910,-9234,383,-53,31,1.71337,1.785285,2.738448
8236038,-215,2498,-8912,487,-28,83,1.714068,1.788274,2.756656
8251665,-983,2010,-7856,347,14,64,1.713603,1.789045,2.768037
8267292,-436,1896,-6778,110,3,-18,1.71288,1.789518,2.782124
8282917,598,2380,-7110,190,-42,-36,1.712867,1.789483,2.783521
8298544,399,2830,-8370,580,-67,-32,1.713796,1.790839,2.789476
8314170,925,3312,-8922,786,-54,-59,1.715069,1.79221,2.796088
8329797,-222,3134,-8232,810,-22,-37,1.718881,1.795559,2.808712
8345423,479,2526,-6576,1104,123,80,1.720229,1.79581,2.826392
8361049,-959,2142,-5536,1190,113,35,1.720229,1.79581,2.826392
8376676,-305,2762,-6712,1104,-49,-57,1.71921,1.792251,2.851516
8392302,247,3464,-6912,993,-165,-174,1.721702,1.792056,2.868711
8407929,640,4230,-6260,971,-94,-226,1.72981,1.796412,2.870123
8423555,297,4450,-5828,992,35,-5,1.733744,1.797565,2.86819
8439181,427,3852,-5426,1126,47,193,1.735934,1.795959,2.88067
8454806,-731,2914,-3954,1051,-41,183,1.735157,1.794608,2.895967
8470432,-47,2520,-3994,832,-160,43,1.733954,1.792589,2.92532
8486058,-564,3660,-4832,854,-113,-17,1.735928,1.792806,2.940598
8501684,-418,4246,-5456,1233,-45,59,1.737721,1.79281,2.945306
8517311,905,4408,-5074,1508,-69,152,1.74088,1.79233,2.966769
8532938,-643,3840,-4316,1723,-126,245,1.742135,1.792181,2.984625
8548565,843,3518,-2346,1460,-5,250,1.743056,1.791211,3.030409
8564191,-662,3768,-870,827,-136,111,1.742035,1.78911,3.048867
8579817,193,4284,-1722,647,-143,-43,1.743387,1.786529,3.058197
8595443,370,4882,-3026,923,-10,-85,1.748336,1.784227,3.049077
8611070,885,4698,-3504,1160,38,53,1.748336,1.784227,3.049077
8626696,70,5062,-3024,1412,130,169,1.752396,1.780626,3.049836
8642323,127,4698,-944,1213,53,269,1.753096,1.775282,3.071366
8657950,691,4768,114,989,-135,254,1.750582,1.769802,3.102306
8673576,-72,5274,-1300,832,-147,39,1.750445,1.768195,3.112806
8689202,-411,5502,-2080,877,-40,-90,1.755467,1.765967,3.107475
8704829,983,6038,-1150,1802,32,-8,1.759012,1.764379,3.098933
8720456,-631,5694,614,2059,-70,67,1.766418,1.759536,3.101697
8736083,56,5672,1646,1813,-264,78,1.766418,1.759536,3.101697
8751709,124,6678,2162,1432,-409,194,1.780051,1.755394,3.132104
8767335,176,7440,1526,1064,-323,284,1.789341,1.756188,-3.132114
8782962,-315,7234,726,979,-134,203,1.791828,1.755661,-3.123909
8798589,44,7010,512,1038,-19,-18,1.795915,1.751555,-3.122734
8814214,-597,6584,1048,1228,-34,-229,1.799444,1.748649,-3.133986
8829841,-493,7778,788,1427,-45,-162,1.811358,1.743329,3.112703
8845467,208,9204,2836,1257,77,-117,1.823588,1.737978,3.079973
8861094,-121,9680,4686,1072,-27,0,1.823588,1.737978,3.079973
8876720,576,9006,3138,1344,-203,231,1.831946,1.727003,3.030304
8892346,733,8044,1932,1561,-171,233,1.836393,1.725324,3.033577
8907973,-393,8778,2076,1635,-86,89,1.848642,1.722278,3.043336
8923599,-499,11340,2862,1715,-124,23,1.855692,1.720131,3.038345
8939226,867,11020,3552,1462,-246,-21,1.876193,1.71737,3.007825
8954852,-367,9544,5544,1275,-266,-133,1.899504,1.716706,2.960743
8970477,224,9438,5680,1295,-2,-157,1.909178,1.7155,2.933586
8998257,8,12536,2226,1969,17,-106,1.909178,1.7155,2.933586
9013883,-617,12976,1878,2200,-393,62,1.944889,1.703971,2.799392
9029510,-913,11904,5384,1438,-692,174,2.010533,1.710874,2.791923
9045136,578,11954,6600,977,-246,73,2.063853,1.716733,2.787138
9060762,-552,13112,6310,914,273,-123,2.072307,1.715202,2.758708
9076387,-342,14010,5274,1243,483,-113,2.067324,1.705688,2.642958
9092014,-307,13168,4452,1452,172,1,2.066906,1.701115,2.580094
9107640,-557,13618,4456,1479,-18,-19,2.097799,1.69868,2.492116
9123267,138,14238,4622,1596,20,-22,2.156939,1.700141,2.423619
9138894,-284,14854,6512,1484,180,50,2.188391,1.700095,2.385187
9154520,347,15622,7828,900,51,-17,2.223952,1.698758,2.281602
9170147,-727,15926,5968,888,-80,-93,2.236154,1.700158,2.22757
9185773,101,15084,4916,1080,-170,-79,2.297717,1.707451,2.149333
9201399,90,15810,4756,1113,-39,-76,2.35264,1.711806,2.125892
9217025,177,16950,6134,1243,273,5,2.4762,1.718758,2.063609
9232651,-25,16752,7140,1122,358,65,2.543612,1.720682,2.017403
9248278,-498,17316,6646,1038,228,92,2.83413,1.726649,1.882984
9263905,277,17782,5622,1045,16,63,3.023356,1.730272,1.859212
9279530,191,17132,5434,1273,-1,21,-3.015423,1.734917,1.842613
9295156,-943,16722,6548,1262,57,103,-2.430304,1.743409,1.814362
9310783,296,16856,7486,747,-95,44,-2.210192,1.746375,1.79849
9326410,-466,18648,6898,139,-297,-68,-2.018761,1.754915,1.771137
9342039,494,20278,6360,58,-273,-110,-2.001728,1.761173,1.760831
9357665,640,20968,5058,654,15,15,-1.942796,1.775117,1.738335
9373291,-407,19178,4942,1402,255,144,-1.734564,1.784695,1.709512
9388917,575,18044,6436,1526,361,125,-1.641372,1.787841,1.695394
9404543,204,17514,7312,1032,38,35,-1.513473,1.793969,1.662047
9420170,844,18482,6194,503,-208,-66,-1.48596,1.798248,1.653738
9435797,-70,20382,4658,-47,-210,-153,-1.463265,1.809608,1.647461
9451423,735,21480,4616,-40,0,-125,-1.450366,1.816821,1.641274
9467049,712,21318,5682,184,118,-27,-1.396509,1.830888,1.616568
9482675,97,19978,7196,368,15,119,-1.364405,1.83651,1.602197
9498300,-20,19488,7724,156,-373,191,-1.331937,1.846795,1.590763
9513926,-413,18566,6960,-467,-579,104,-1.342122,1.849319,1.596527
9529552,-271,18772,5550,-1014,-464,-118,-1.345763,1.852917,1.598366
9545179,159,21650,5218,-1324,-299,-115,-1.317585,1.863921,1.585755
9560806,60,21490,6420,-805,23,-8,-1.274977,1.870021,1.571957
9576432,425,20058,7354,309,252,124,-1.135151,1.261479,1.535824
9592058,-816,18228,7128,529,38,178,-1.091219,1.258335,1.521948
9607684,-609,17736,6462,98,-156,121,-1.056119,1.252168,1.508812
9623311,-436,18394,6426,-423,-137,-68,-1.02081,1.248397,1.502181
9638938,-810,20462,5594,-564,-35,-186,-0.968132,1.243256,1.493448
9654564,921,20336,5512,-240,-25,-66,-0.839962,1.231535,1.473765
9670190,751,18918,5626,12,-188,0,-0.80395,1.226938,1.468813
9685817,734,18060,6454,100,-195,-50,-0.789366,1.220027,1.469792
9701448,-908,18122,6674,102,-193,-29,-0.788308,1.216774,1.470518
9717075,549,18692,6364,-101,-68,-60,-0.76977,1.210487,1.468662
9732701,110,19468,6834,-185,19,-29,-0.686094,1.203276,1.454452
9748328,-578,20052,6562,-135,22,20,-0.637252,1.199683,1.446153
9763955,137,19100,5526,175,13,82,-0.589264,1.193926,1.434789
9779581,-77,18680,5578,148,-6,38,-0.588903,1.191743,1.43236
9795208,793,18518,6236,133,-28,32,-0.585104,1.18709,1.428174
9810834,-934,18940,7030,132,-62,13,-0.580618,1.184756,1.426023
9826459,-680,19070,6834,73,-78,-9,-0.56937,1.179633,1.421535
9842084,-958,19106,6324,17,-27,-31,-0.558492,1.176953,1.419203
9857710,214,19558,5872,-60,-9,-76,-0.504662,1.167065,1.408881
9873337,390,19802,5658,53,4,-41,-0.492846,1.163725,1.406531
9888963,849,18958,6132,130,-102,9,-0.492097,1.160992,1.405411
9904590,-172,18902,6964,-38,-128,9,-0.493261,1.156563,1.405984
9920216,-513,19208,6616,-171,-147,26,-0.477671,1.154576,1.404152
9935842,-863,19558,6286,-203,-27,10,-0.426432,1.150766,1.398188
9951468,-275,19396,5964,-187,118,-58,-0.394461,1.148294,1.392522
9967094,-944,19392,5372,-64,50,-13,-0.335644,1.142144,1.379323
9994686,-181,19206,6892,-90,-133,-13,-0.335644,1.142144,1.379323
10010313,-594,18516,7204,-190,-156,-43,-0.273166,1.133388,1.373231
10025939,-777,19142,6534,-153,-49,-38,-0.221044,1.129184,1.368476
10041566,891,19120,6220,9,46,-18,-0.199122,1.126877,1.364742
10057193,326,19272,6210,39,-15,18,-0.183964,1.122799,1.358957
10072820,511,19194,6456,-13,-115,-40,-0.180445,1.121135,1.357697
10088446,429,18808,6710,-70,-148,-47,-0.166205,1.117421,1.358135
10104072,990,18802,6648,-72,-80,-41,-0.139747,1.113703,1.356917
10119698,-457,18688,6612,-101,-73,-50,-0.139747,1.113703,1.356917
10135324,-7,18862,6498,-153,-67,-18,-0.092192,1.108446,1.351489
10150950,-438,18764,6276,-144,4,-9,-0.071023,1.106937,1.348492
10166576,342,19200,5600,-158,95,-54,-0.03397,1.103636,1.340624
10182203,-700,19302,5648,-182,194,-66,-0.01371,1.101305,1.335603
10197828,568,19252,6352,-99,170,-49,0.022469,1.096199,1.323198
10213454,-669,18554,6820,135,34,23,0.028513,1.092225,1.315736
10229081,879,17966,6732,26,-142,-7,0.021052,1.091318,1.314992
10244708,-77,18610,6442,-194,-279,-42,0.032499,1.090165,1.317243
10260333,363,19388,5800,-157,-278,-76,0.053517,1.089378,1.319544
10275958,-57,19720,5558,-95,-200,-67,0.088734,1.086897,1.325538
10291585,-349,19558,5896,-60,-7,-47,0.100604,1.085317,1.327644
10307212,312,19274,6260,36,121,-11,0.112691,1.081726,1.324913
10322838,-720,18426,6540,91,161,3,0.10993,1.080121,1.321333
10338465,801,18434,6756,-5,92,-12,0.100127,1.077412,1.313897
10354091,490,18914,6206,-90,20,-28,0.107858,1.075255,1.306808
10369717,-799,19384,5842,-23,-19,-7,0.107858,1.075255,1.306808
10385343,-111,19042,5466,81,-79,-9,0.120898,1.072099,1.304744
10400969,564,19180,6282,14,-92,-49,0.116276,1.071352,1.306922
10416595,536,18640,6628,-27,-150,-45,0.121653,1.069396,1.309796
10432222,-370,18442,7162,-63,-171,-21,0.128146,1.068517,1.31091
10447848,-69,18840,6644,-80,-178,31,0.149924,1.067809,1.312288
10463475,-532,18792,6144,-24,-75,51,0.169218,1.067905,1.313051
10479101,-761,19086,5700,18,42,11,0.172638,1.067781,1.312538
10494728,-139,18970,5910,-18,110,-26,0.170973,1.066121,1.30934
10510354,280,18878,6604,-44,30,-38,0.173681,1.064787,1.306379
10525980,104,18586,6672,-42,-128,-38,0.183832,1.062519,1.303616
10541605,-913,18808,6014,-44,-144,-9,0.191591,1.061964,1.304275
10557230,-403,19112,5838,-36,-50,3,0.205866,1.06138,1.305732
10572856,4,19244,5808,42,-6,79,0.209938,1.061014,1.305481
10588482,224,18952,6158,58,-25,46,0.207573,1.060881,1.304834
10604108,945,18702,5960,-17,-23,-44,0.203484,1.060186,1.304805
10619734,-496,19070,6240,-59,63,-60,0.212635,1.057838,1.302149
10635360,-483,18870,6364,-13,85,-9,0.214773,1.056542,1.299571
10650987,709,18964,6444,29,71,41,0.215924,1.055689,1.296819
10666613,-416,18864,6716,1,-25,33,0.212207,1.054968,1.292945
10682238,108,19322,6502,-55,-151,8,0.214692,1.054762,1.292535
10697863,532,19310,6438,-63,-182,-32,0.231513,1.054454,1.295001
10713490,-332,18766,6472,20,-132,-36,0.246806,1.053712,1.298727
10729115,-417,18502,6514,-2,-47,-30,0.249276,1.053079,1.300138
10757121,256,19082,5992,-67,-30,-5,0.249276,1.053079,1.300138
10772748,913,18538,6136,-17,-25,18,0.266222,1.051347,1.297267
10788374,-63,18818,6164,-54,28,-25,0.271219,1.051007,1.295867
10804000,372,19044,6292,-24,93,-31,0.27888,1.049412,1.292166
10819626,-476,19240,6282,6,47,-22,0.279519,1.048395,1.289707
10835252,-261,18820,6282,41,-47,8,0.276699,1.046849,1.287643
10850879,772,18582,6504,-31,-135,25,0.276807,1.046781,1.288376
10866506,932,18724,6506,-92,-160,24,0.289911,1.047481,1.290345
10882131,-118,19092,6050,-106,-98,-9,0.311595,1.047722,1.290914
10897757,-830,19192,5772,35,90,-34,0.317937,1.046991,1.290509
10913384,719,19304,6064,13,117,-52,0.311397,1.044534,1.287795
10929011,-90,18868,6076,-4,79,-4,0.30933,1.043354,1.285633
10944638,96,18772,6618,7,41,63,0.306835,1.042511,1.282092
10960265,89,18480,6630,-69,-38,19,0.306272,1.042802,1.280385
10975890,908,18958,6382,-97,-82,-19,0.319505,1.042856,1.278106
10991517,448,19468,6216,-27,-138,-16,0.3284,1.042553,1.278304
11019275,452,18812,6354,-14,-50,19,0.340828,1.042503,1.28304
11034902,528,19100,6432,-25,5,6,0.343172,1.042251,1.282477
11050528,-746,18578,6188,9,51,-6,0.345235,1.041907,1.281279
11066154,891,18936,5924,-58,-15,-25,0.345235,1.041043,1.278772
11081780,5,19298,5812,-34,-41,-16,0.350677,1.040552,1.278284
11097407,-412,18956,6122,6,-5,23,0.35592,1.039803,1.27902
11113039,17,18594,6822,-17,12,41,0.355645,1.039869,1.278296
11128665,-183,18792,7024,-54,-9,-31,0.35738,1.039842,1.276762
11144291,-246,19110,6770,-28,-37,-75,0.366202,1.038625,1.274304
11159917,418,19060,6056,-13,-75,-78,0.370174,1.03753,1.274278
11175543,-601,18696,6066,-32,-76,-37,0.378055,1.036046,1.276637
11191170,-492,18992,6436,-79,-49,-34,0.383231,1.035822,1.277246
11206797,-537,18918,6478,-38,42,16,0.394632,1.035208,1.275997
11222423,127,18966,5896,4,64,-4,0.395699,1.034774,1.272442
11238050,988,18908,5952,47,56,-32,0.393481,1.034251,1.271152
11253676,-17,19028,6386,24,5,-59,0.38603,1.032882,1.270777
11269302,-65,18454,7284,-39,-9,-65,0.391842,1.031327,1.269982
11284929,-303,18720,6714,-53,-4,-40,0.394246,1.030693,1.268748
11300556,272,19144,5860,-48,13,-3,0.398722,1.030266,1.2674
11316182,-453,19212,5454,13,35,-8,0.402065,1.029838,1.266143
11331807,310,19060,5914,-30,11,-48,0.400487,1.029392,1.266356
11347432,-856,19046,6508,6,-19,-59,0.403381,1.028345,1.266733
11363058,-769,18428,6802,6,-126,-54,0.40595,1.027201,1.268062
11378685,-448,18730,6086,-71,-158,-77,0.411014,1.027043,1.269672
11394310,961,19206,5626,-67,-58,-54,0.434342,1.02623,1.273341
11409936,810,19456,5642,-25,30,-25,0.436152,1.025739,1.273122
11425563,-869,19476,6022,-13,65,9,0.436308,1.02536,1.272443
11441190,11,19242,7214,23,4,55,0.434946,1.025046,1.271148
11456816,-266,18448,6716,57,-166,19,0.431675,1.025762,1.270659
11472442,926,18148,6368,-16,-187,-71,0.436134,1.027001,1.275233
11488067,-367,18970,6312,-45,-174,-85,0.444332,1.027019,1.277742
11503693,-95,19306,5798,10,-134,-24,0.460173,1.02646,1.282093
11519319,363,19618,5650,-11,-104,30,0.467981,1.026973,1.286155
11534945,-427,19146,5868,-5,-45,43,0.471469,1.027312,1.28713
11550571,794,18822,6440,-5,12,23,0.471873,1.027643,1.287269
11566197,892,18760,7018,-18,-17,-10,0.472914,1.027905,1.285282
11581824,751,18926,6572,-14,-153,-27,0.478281,1.02807,1.284594
11597450,-440,19012,6164,8,-181,38,0.485551,1.028463,1.286322
11613076,529,19374,5690,23,-84,60,0.494376,1.02982,1.290452
11628703,179,19212,5942,21,-32,24,0.495273,1.030521,1.291451
11644329,656,18888,6048,19,5,-2,0.492311,1.030438,1.291716
11659955,677,18566,6516,10,-23,1,0.492612,1.030476,1.291318
11675580,963,18634,6386,-58,-135,-27,0.497062,1.030602,1.291274
11691206,-737,19268,6224,-69,-136,16,0.506444,1.030825,1.292055
11706832,-82,19708,6196,20,41,24,0.522862,1.031339,1.293245
11722457,-666,19268,6386,62,123,2,0.514599,1.03062,1.290643
11738083,722,18708,6558,29,63,-36,0.506683,1.029858,1.288603
11753709,434,18728,6452,-36,-80,-60,0.502743,1.028694,1.286468
11769336,-637,19196,6442,-84,-217,-35,0.523365,1.028416,1.288969
11784963,-169,19432,6292,-27,-191,33,0.535563,1.028899,1.291368
11800589,-615,19062,6268,2,-78,27,0.54326,1.029531,1.293339
11816216,-446,18906,6090,-40,-24,-16,0.549217,1.029983,1.293754
11831843,-612,18934,6214,-78,-61,-61,0.559748,1.029298,1.292564
11847470,-754,19228,6154,-33,-99,-66,0.566814,1.028737,1.292667
11863097,-563,18792,6188,9,-80,-7,0.578949,1.027943,1.294859
11878723,-788,18884,6312,6,19,18,0.581569,1.028108,1.295308
11894350,-932,18828,6212,-3,90,35,0.572965,1.028366,1.290009
11909976,-127,18920,6164,-12,24,15,0.572135,1.028393,1.288438
11925603,662,19394,6142,-32,-56,-10,0.574491,1.028273,1.287944
11941230,906,19376,6160,8,-53,-36,-0.208166,2.631552,1.86272
11956856,-308,19046,6340,14,-12,-16,0.583375,1.027398,1.289695
11972483,-282,18900,6824,-50,-36,-8,0.584713,1.02695,1.288902
11988110,-564,18776,6970,-62,-86,25,0.589863,1.026913,1.288143
12003736,-127,19294,6486,-88,-108,27,0.603984,1.027695,1.28681
12031345,301,19268,5978,36,-29,23,0.603984,1.027695,1.28681
12046970,-842,18942,6476,20,-21,7,0.618051,1.028741,1.288635
12062596,-470,18826,6838,-63,16,-22,0.618864,1.028617,1.28752
12078222,715,18946,6394,-61,56,-48,0.62155,1.02808,1.285369
12093847,457,19116,5708,-56,9,-59,0.625036,1.026677,1.281576
12109473,-779,19116,5654,-27,-61,-45,0.628656,1.02603,1.281241
12125100,-696,19410,6384,13,-119,-28,0.638515,1.025405,1.283522
12140726,936,18980,6190,26,-129,20,0.642723,1.025465,1.285526
12156351,976,18814,5890,1,-19,-20,0.648737,1.026419,1.288056
12171978,529,19014,5910,25,10,-24,0.64923,1.026135,1.287976
12187604,919,19292,5892,51,-34,-78,0.647093,1.025722,1.288003
12203231,-673,19356,6018,100,-64,-38,0.645221,1.024463,1.290634
12218856,-168,19440,6386,119,-26,-16,0.64141,1.024139,1.29256
12234482,-839,19342,6146,174,48,-16,0.62662,1.023516,1.294595
12250109,719,19096,6478,172,102,-24,0.613833,1.022975,1.294959
12265736,-548,19386,6882,183,-72,-61,0.585318,1.021803,1.294706
12281362,291,19114,6712,175,-196,-17,0.571368,1.02127,1.299459
12296988,-478,19364,6556,95,-244,11,0.569333,1.021676,1.30354
12312614,-807,20016,6222,105,-180,2,0.575149,1.022643,1.31123
12328241,-822,19794,6106,226,-113,3,0.573437,1.022747,1.314536
12343868,671,19302,6068,366,-115,7,0.547393,1.022776,1.321892
12359494,127,19388,6284,262,-163,-36,0.527183,1.022937,1.326922
12375121,159,19762,6380,173,-108,-30,0.503979,1.022817,1.335004
12390747,977,20352,6020,440,18,53,-3.140616,-0.000488,-0.000122
12406373,-888,20104,6328,697,54,110,-3.140616,-0.000488,-0.000122
12421999,-759,19542,6288,704,-56,86,0.375286,1.023175,1.346915
12437625,-362,19932,5824,529,-206,16,0.25582,1.024596,1.358978
12453251,-96,20872,5464,321,-129,-21,0.178223,1.024947,1.372719
12468878,4,21382,5778,351,74,65,0.152164,1.024493,1.376448
12484505,524,21424,5372,562,269,135,0.077488,1.023922,1.378163
12500132,129,21098,6388,550,248,164,0.025627,1.024012,1.377843
12515758,278,20792,7260,804,-76,252,-0.074235,1.025244,1.378128
12531383,79,21256,6316,864,-353,129,-0.202646,1.028601,1.392449
12547009,732,21446,5428,976,-317,97,-0.277719,1.029726,1.405496
12562636,-58,21576,5904,690,29,-23,-0.423991,1.030107,1.429067
12578262,802,22472,6322,616,142,-88,-0.462115,1.028662,1.432727
12593889,351,22692,6930,540,-47,-63,-0.511548,1.023951,1.436244
12609515,105,22880,6498,685,-266,65,-0.536828,1.022253,1.440144
12625142,-168,22582,6152,921,-267,113,-0.620969,1.02166,1.457677
12640769,-413,21964,5620,1131,62,94,-0.724661,1.022366,1.478248
12656396,916,22810,5818,1099,177,-59,-0.762798,1.022076,1.485075
12672022,160,23914,6326,966,-30,-68,-0.816107,1.018285,1.496504
12687648,96,23904,6204,814,-220,-36,-0.840048,1.016234,1.503585
12703275,-550,24152,5504,810,-395,-46,-0.888507,1.012333,1.521185
12718900,990,24530,4866,880,-408,-86,-0.917281,1.010609,1.532847
12734526,415,24228,4560,1105,-159,-156,-0.974432,1.005499,1.557449
12750152,32,24316,5500,1160,80,-194,-0.994672,1.002291,1.567386
12765778,661,25362,4876,978,-111,-53,-1.026801,2.14783,1.587119
12781404,-61,25684,4314,1041,-170,24,-1.041109,2.149653,1.595667
12797037,-725,24880,3772,1178,-92,-45,-1.056426,2.151145,1.605323
12812664,-806,24092,3498,1088,80,-198,-1.080898,2.155381,1.623492
12828291,-689,25442,4180,692,183,-360,-1.083845,2.158645,1.628663
12843917,829,26256,6350,355,-116,-270,-1.069255,2.167828,1.62721
12859543,205,27434,5708,603,-489,-60,-1.065834,2.171876,1.627664
12875169,773,27744,3690,1256,-279,276,-1.088288,2.176115,1.64446
12890795,276,26260,3138,1327,28,200,-1.120538,2.174393,1.668776
12906421,-947,26318,3024,1041,296,-2,-1.127162,2.174033,1.676602
12922046,389,27498,3374,890,335,-115,-1.120009,2.176138,1.679346
12937672,-910,28568,3752,980,275,-153,-1.112276,2.178688,1.678051
12953299,654,28714,3642,1411,-17,39,-1.105527,2.184515,1.682611
12968924,544,28622,3188,1602,-348,177,-1.114043,2.185791,1.693601
12984551,774,28534,3226,1581,-316,199,-1.14495,2.186607,1.726866
13012313,407,28972,3168,1044,10,22,-1.14495,2.186607,1.726866
13027940,-964,29420,2684,798,-27,-37,-1.162982,2.19034,1.761665
13043567,802,29906,1880,742,-297,2,-1.159938,2.194975,1.766999
13059193,734,29752,1402,1124,-307,25,-1.163089,2.197547,1.773557
13074819,123,29702,1038,1429,-133,1,-1.174024,2.202171,1.794485
13090446,-337,30640,3284,1285,59,42,-1.178031,2.206034,1.812417
13106072,-427,30108,3822,872,-24,180,-1.176248,2.206923,1.816498
13121697,262,29684,1862,398,-285,172,-1.172942,2.206888,1.818955
13137323,-398,30246,-830,69,-328,-10,-1.171794,2.210031,1.819718
13152948,787,31956,-1942,-13,-186,-217,-1.168097,2.21419,1.817665
13168574,398,32190,-176,263,-30,-210,-1.16186,2.219466,1.814617
13184200,-752,32156,1114,862,120,-49,-1.1488,2.227759,1.810159
13199826,912,31696,3188,1097,-59,132,-1.144871,2.22993,1.811613
13215452,751,30182,1862,1106,-352,276,-1.143379,2.231803,1.819826
13231079,810,29534,-58,1003,-407,237,-1.155982,2.231041,1.839149
13246706,-501,31424,-1422,729,-297,26,-1.162581,2.231145,1.849107
13262331,-511,32767,-1232,547,0,-98,-1.158646,2.238981,1.857474
13277956,-674,32767,-648,1012,210,-107,-1.152917,2.241712,1.857874
13293583,-744,32740,-852,1522,180,-85,-1.149354,2.244037,1.861721
13309210,-207,31954,-624,1963,63,57,-1.148079,2.246324,1.869748
13324836,314,29734,-1532,1866,-46,185,-1.155316,2.247997,1.897488
13340463,-228,30376,-1774,1289,15,80,-1.164216,2.246812,1.924122
13356090,-668,32304,-2004,617,14,-60,-1.164053,2.247181,1.929812
13371716,357,32767,-2214,471,-33,-133,-1.154828,2.251853,1.92757
13387341,87,32767,-2834,885,-71,-136,-1.149537,2.255192,1.925858
13402967,54,32767,-3632,1656,10,39,-1.145052,2.261182,1.934665
13418594,353,31476,-3438,2267,57,187,-1.147393,2.262028,1.947343
13434220,-668,31356,-2556,2413,156,152,-1.156855,2.260858,1.983202
13449846,393,30702,-3124,1405,74,56,-1.160457,2.258779,2.009792
13465473,353,32767,-4470,148,-144,-118,-1.158889,2.258964,2.014586
13481099,721,32767,-5018,-449,-277,-273,-1.146897,2.266548,2.002644
13506937,30,32767,-5364,669,-162,-29,1.26189,0.672904,1.129807
13522563,130,32767,-5352,1318,77,84,1.26189,0.672904,1.129807
13538190,-817,32767,-5898,1644,172,7,-1.131265,2.280208,2.003782
13553817,291,32767,-6578,1577,149,-44,-1.129699,2.281615,2.021739
13569442,-496,32767,-6992,790,-4,-58,-3.133536,0.000733,-0.000241
13585072,89,32767,-6286,403,-107,-21,-1.123636,2.286354,2.037074
13600697,580,32767,-6578,524,-70,108,-1.118085,2.289679,2.035468
13616324,815,32767,-6578,772,-53,182,-1.116757,2.290198,2.03633
13631951,609,32767,-6600,1096,-75,223,-1.11887,2.289183,2.052279
13647578,-374,32767,-6462,1563,-38,262,-1.121274,2.28815,2.063071
13663204,-25,32767,-7936,2015,59,314,-1.124604,2.28665,2.077429
13678829,-584,32767,-8514,1770,69,208,-1.128237,2.284834,2.093195
13694454,445,32767,-9114,1105,-45,-12,-1.130249,2.284225,2.116892
13710080,635,32767,-8676,505,-66,-49,-1.125875,2.288054,2.124709
13725706,0,32767,-8240,638,32,-29,-1.122071,2.290167,2.123304
13741332,799,32767,-8632,1021,48,147,-1.115367,2.292197,2.122723
13756958,-151,32767,-9860,1517,-68,299,-1.115509,2.29105,2.128376
13772585,-249,32767,-11290,1689,-40,142,-1.119475,2.289676,2.152086
13788212,404,32767,-11520,1512,136,-33,-1.120047,2.290423,2.164629
13803838,962,32767,-12524,890,238,-197,-1.114247,2.293029,2.177778
13819465,908,32767,-11052,264,-13,-119,-1.10237,2.298055,2.171543
13835090,-546,32767,-10676,190,-256,5,-1.097836,2.300687,2.167506
13850717,665,32767,-10988,246,-370,29,-1.09244,2.306437,2.164085
13866344,-133,32767,-10862,265,-362,18,-1.088473,2.312982,2.163839
13881971,-292,32767,-11468,435,-240,-26,-1.086359,2.315871,2.16402
13897598,-864,32767,-12030,509,-59,-103,-1.083699,2.318611,2.164282
13913223,-112,32767,-11630,425,-25,-79,-1.076587,2.323199,2.162683
13928849,-618,32767,-11640,448,-100,-14,-1.073159,2.325095,2.161265
13944475,430,32767,-11584,422,-96,45,-1.068203,2.328443,2.160386
13960106,703,32767,-11704,343,65,42,-1.063934,2.330203,2.158847
13987702,-211,32767,-11608,-101,43,71,-1.063934,2.330203,2.158847
14003328,201,32767,-12158,33,-3,67,-1.052793,2.330092,2.13868
14018955,709,32767,-13452,762,77,-16,0.986071,-0.467201,0.239029
14034580,-538,32767,-12662,563,179,-107,-1.046086,2.332486,2.138221
14050207,934,32767,-11684,-39,66,-118,-1.038169,2.335033,2.134323
14065834,635,32767,-11956,-409,-32,-132,-1.033445,2.336682,2.126636
14081461,-755,32767,-12362,-73,140,-89,-1.023553,2.34069,2.108725
14097087,-561,32767,-12546,73,224,-32,-1.019453,2.341351,2.102128
14112714,-706,32767,-13332,-36,150,-75,-1.008165,2.343034,2.085221
14128340,862,32767,-13552,-169,39,-110,-1.004346,2.344826,2.079511
14143967,-452,32767,-13140,78,-104,35,-1.001366,2.346696,2.075619
14159593,-439,32767,-12256,93,-106,76,-0.999184,2.348757,2.073775
14175219,930,32767,-11616,10,-35,5,-0.998081,2.349478,2.072537
14190845,501,32767,-11850,-123,22,-133,-0.993158,2.351514,2.06524
14206472,440,32767,-12522,-226,46,-204,-0.988952,2.353394,2.059032
14222098,640,32767,-13058,-35,77,-102,-0.977194,2.358833,2.043028
14237725,-150,32767,-13162,31,-9,27,-0.975721,2.35945,2.041187
14253352,-635,32767,-12600,-51,-114,24,-0.974776,2.360225,2.039918
14268978,171,32767,-11670,-132,-139,-29,-0.972158,2.362441,2.035545
14284605,-278,32767,-11868,-167,-94,-2,-0.97023,2.363767,2.0323
14300230,-502,32767,-12446,-140,-24,3,-0.966792,2.365494,2.025094
14315857,-870,32767,-12694,-125,59,-49,-0.965063,2.365996,2.021574
14331484,604,32767,-12426,-217,16,-96,-0.95998,2.36775,2.013182
14347110,891,32767,-12264,-141,-93,-35,-0.955396,2.370251,2.005795
14362737,44,32767,-11888,-131,-67,-29,-0.954088,2.371274,2.003479
14378363,639,32767,-11644,-146,-16,-51,-0.95225,2.372242,2.000475
14393989,-503,32767,-12306,-122,8,-38,-0.948266,2.373821,1.993202
14409616,779,32767,-12684,-215,0,-49,-0.944751,2.375208,1.986946
14425242,914,32767,-12500,-220,-3,-53,-0.94278,2.376026,1.983293
14440868,321,32767,-12226,-100,9,-63,-0.939,2.37772,1.976542
14456494,-603,32767,-11450,6,-5,12,-0.937448,2.378493,1.974417
14472120,716,32767,-10808,174,-105,97,-0.937799,2.378017,1.974622
14487746,-692,32767,-11808,95,-181,87,-0.938939,2.37784,1.976331
14503372,250,32767,-12764,-50,-142,29,-0.9395,2.378326,1.977188
14518998,289,32767,-13096,-73,-39,-27,-0.939358,2.379533,1.976766
14534624,841,32767,-12162,-53,46,-92,-0.938326,2.380266,1.97548
14550251,-322,32767,-11296,-16,62,-70,-0.934489,2.381849,1.970724
14565878,804,32767,-11042,36,33,16,-0.93284,2.382239,1.968514
14581505,83,32767,-12118,-63,-80,42,-0.931589,2.381881,1.965724
14597130,-730,32767,-12710,-70,-127,33,-0.931697,2.381921,1.96484
14612756,-994,32767,-12832,-11,-113,29,-0.932018,2.382723,1.965113
14628383,-201,32767,-11852,-148,-66,-8,-0.932259,2.383399,1.964976
14644009,453,32767,-11350,-218,-40,-4,-0.931231,2.383878,1.96272
14659635,-656,32767,-11346,-303,-32,42,-0.929057,2.384034,1.955988
14675262,-731,32767,-12172,-219,-33,12,-0.928096,2.383795,1.951984
14690889,538,32767,-12602,-8,-6,6,-0.92683,2.383771,1.947609
14706515,338,32767,-12440,-95,-60,-35,-0.926063,2.384583,1.946816
14722141,-458,32767,-11692,-201,-118,-77,-0.925197,2.385527,1.94546
14737767,969,32767,-11384,-272,-122,-76,-0.923749,2.386895,1.943366
14753394,-239,32767,-11322,-327,-32,-21,-0.920769,2.388914,1.93777
14769019,164,32767,-10528,-604,-62,25,-0.917955,2.389135,1.92886
14784645,888,32767,-10058,-812,-183,-4,-0.916085,2.38902,1.921918
14800271,655,32767,-10972,-762,-229,-118,-0.911006,2.390521,1.906115
14815897,-193,32767,-11234,-458,-182,-104,-0.906215,2.393821,1.895821
14831524,489,32767,-11920,-237,-117,-39,-0.905302,2.394745,1.893593
14847151,-775,32767,-11928,-110,23,-21,-0.905117,2.395268,1.892708
14862777,-811,32767,-11166,-188,82,-34,-0.904439,2.395133,1.890747
14878404,-200,32767,-10598,-606,-93,-61,-0.901424,2.395479,1.883199
14894038,-968,32767,-10332,-597,-164,-21,-0.899217,2.396067,1.877472
14909664,-487,32767,-10816,-473,-189,25,-0.896877,2.396689,1.868451
14925289,-157,32767,-10988,-342,-95,-29,-0.896763,2.396676,1.865782
14953073,21,32767,-9858,-348,6,-45,-0.893298,2.396978,1.855573
14968699,-708,32767,-9940,-363,-31,-64,-0.891878,2.397126,1.851931
14984326,-224,32767,-9984,-435,-41,-87,-0.890233,2.397521,1.848334
14999952,-362,32767,-9908,-663,-112,-66,-0.88645,2.39854,1.839815
15015579,73,32767,-9442,-913,-181,-93,-0.8841,2.399156,1.833857
15031206,233,32767,-8612,-1061,-217,-48,-0.877562,2.400884,1.817906
15046831,-834,32767,-8344,-835,-176,-12,-0.874274,2.401259,1.80923
15062458,639,32767,-8824,-516,-12,-15,-0.868472,2.400456,1.791728
15078084,-164,32767,-9544,-300,70,-22,-0.867439,2.399778,1.788441
15093710,-146,32767,-9568,-234,30,-36,-0.866815,2.39936,1.786218
15109336,594,32767,-9020,-232,-30,-17,-0.86638,2.39893,1.783845
15124963,-630,32767,-8064,-426,-64,-15,-0.866469,2.398619,1.782689
15140589,-849,32767,-7280,-708,-147,18,-0.864367,2.397944,1.775517
15156215,-803,32767,-7430,-877,-224,91,-0.862716,2.397227,1.769435
15171841,-883,32767,-8076,-678,-161,81,-0.860387,2.395008,1.757371
15187467,-77,32767,-8412,-315,21,-24,-0.859178,2.393538,1.750274
15203094,834,32767,-8246,-158,73,-54,-0.858609,2.393334,1.748556
15218720,-214,32767,-7590,-184,45,-64,-0.857591,2.393123,1.746521
15234345,983,32767,-7048,-436,-47,-19,-0.856797,2.393213,1.744986
15249971,-557,32767,-6790,-675,-90,1,-0.854268,2.392533,1.737822
15265597,-819,32767,-7334,-810,-75,-31,-0.851911,2.392175,1.73209
15281223,-609,32767,-7540,-831,-69,-87,-0.845202,2.392178,1.718468
15296850,99,32767,-7486,-633,-55,-122,-0.838646,2.393384,1.707418
15312476,-228,32767,-7290,-300,-40,-11,-0.836545,2.394042,1.704363
15328102,430,32767,-6940,-335,-47,49,-0.837097,2.39299,1.702507
15343728,4,32767,-6656,-505,-27,28,-0.837419,2.391937,1.700901
15359355,-771,32767,-6268,-762,25,-57,-0.83436,2.39054,1.692761
15374981,-17,32767,-5680,-916,-9,-126,-0.829995,2.390675,1.685569
15390608,270,32767,-5556,-949,-133,-87,-0.818866,2.391905,1.668836
15406234,-989,32767,-6184,-714,-165,-78,-0.814427,2.392343,1.661984
15421861,-484,32767,-6746,-370,10,-111,-0.808395,2.393625,1.653283
15437488,702,32767,-6550,-332,308,-230,-0.805761,2.394827,1.651273
15453114,327,32767,-5028,-837,168,-242,-0.800568,2.396281,1.646242
15468739,-264,32767,-4642,-792,-84,-94,-0.786638,2.399045,1.629903
15484366,939,32767,-5200,-681,-137,44,-0.783323,2.398901,1.624744
15499991,-183,32767,-4262,-789,-83,152,-0.781007,2.39584,1.616674
15515617,574,32767,-3036,-1052,-31,94,-0.778909,2.393533,1.610569
15531244,644,32767,-2920,-1208,-112,-19,-0.759994,2.390098,1.581292
15546871,-757,32767,-4308,-1005,-168,-49,-0.754335,2.38987,1.573905
15562497,339,32767,-5306,-852,-45,-8,-0.750333,0.75218,1.568508
15578123,-621,32767,-4890,-904,-53,66,-0.743412,0.75386,1.558393
15593750,1,32767,-4086,-1071,-79,42,-0.739915,0.755395,1.552672
15609377,-357,32767,-3130,-1039,92,-5,-0.728238,0.757484,1.53756
15625002,792,31562,-2572,-1078,211,-50,-0.719931,0.757948,1.528087
15640627,60,31308,-2256,-1194,91,-82,-0.700194,0.758446,1.50653
15656254,-263,32606,-2052,-1480,-149,5,-0.678823,0.759614,1.484763
15671880,-818,32767,-1620,-1314,-258,40,-0.668333,0.760874,1.474437
15687507,-742,32767,-2408,-907,-58,66,-0.654801,0.763655,1.461327
15703133,526,32767,-2166,-644,100,100,-0.649901,0.765118,1.456241
15718759,303,32724,-1006,-609,61,116,-0.643462,0.768181,1.448243
15734386,-421,31684,-358,-521,-13,130,-0.640712,0.769829,1.444813
15750012,260,30844,-280,-623,-55,69,-0.637767,0.773922,1.439409
15765638,641,30550,-1018,-922,-80,-44,-0.62779,0.776489,1.43047
15781265,957,31728,-726,-1233,-25,-92,-0.617467,0.776778,1.422938
15796890,749,32767,-172,-1104,22,-85,-0.604114,0.776634,1.413543
15812517,-65,32767,-240,-633,83,-102,-0.578224,0.775627,1.396818
15828143,-657,31828,-422,-257,39,-88,-0.567895,0.774204,1.391707
15843770,133,30468,262,-339,-17,-39,-0.567942,0.773865,1.393013
15859396,-924,29560,1688,-464,14,5,-0.567161,0.775621,1.392832
15875022,42,29912,2084,-891,10,-79,-0.563243,0.776857,1.389643
15902622,-356,32767,110,-1128,17,-156,-0.507723,0.775507,1.357105
15918248,128,32767,-832,-717,-37,-135,-0.496266,0.774404,1.352312
15933874,-84,32114,-192,-418,10,-60,-0.490764,0.773779,1.351324
15949500,-159,30238,1130,-300,-21,-15,-0.48876,0.774134,1.352935
15965127,695,28960,2156,-452,53,19,-0.489094,0.775253,1.353502
15980754,687,28440,2032,-852,34,5,-0.480904,0.77842,1.347537
15996381,-865,29330,406,-1457,46,-90,-0.468175,0.77988,1.339869
16012008,-201,31820,296,-1762,236,-164,-0.420815,0.780461,1.31488
16027634,615,31944,1556,-1480,62,-102,-0.36053,0.778094,1.286035
16043261,702,30164,2680,-1131,-117,45,-0.336877,0.777831,1.276115
16058888,242,28886,3520,-1029,-210,173,-0.305095,0.782256,1.263684
16074515,-915,27344,3336,-986,-75,217,-0.291723,0.786303,1.25792
16090142,-767,27460,3002,-1273,66,87,-0.261325,0.793963,1.242835
16105767,922,28412,2778,-1716,-67,-55,-0.236689,0.796201,1.231907
16121392,-742,29412,2408,-1767,-139,-163,-0.165068,0.798448,1.206628
16137019,-431,28304,3180,-1215,-4,-112,-0.096899,0.798356,1.187717
16152646,-221,27718,3370,-1060,27,-69,-0.072103,0.798974,1.181064
16168272,-841,27434,4282,-1063,167,-17,-0.027455,0.800491,1.167915
16183899,-262,26398,5238,-1000,201,-20,-0.005023,0.801409,1.159717
16199525,-380,25900,5526,-754,103,-47,0.03606,0.802818,1.14436
16215151,235,25986,4944,-587,-102,-24,0.050411,0.804142,1.140099
16230777,-804,26172,5118,-710,-347,15,0.073527,0.809116,1.138695
16246403,-663,25498,4250,-1028,-456,-14,3.141587,-0.011514,0.021212
16262029,21,25738,3742,-1308,-253,-21,3.141587,-0.011514,0.021212
16277654,956,26106,4040,-1398,-114,19,0.173353,0.823317,1.130966
16293280,-610,25688,4216,-1288,-27,42,0.247166,0.828298,1.115077
16308906,-997,25246,4702,-936,-123,81,0.309495,0.833136,1.100764
16324533,21,25210,4918,-800,-99,36,0.332253,0.83638,1.097324
16340159,-903,24448,5538,-919,105,31,0.374372,0.841284,1.090569
16355786,-535,24200,5896,-936,216,-13,0.396835,0.842501,1.084007
16371412,577,23656,6688,-803,7,11,0.439686,0.844015,1.068903
16387039,716,23436,6156,-759,-447,-7,0.482157,0.848686,1.061931
16402665,439,24686,5146,-747,-627,24,0.50862,0.85315,1.063462
16418292,-994,24606,3970,-700,-380,114,0.564795,0.863456,1.070204
16433918,626,23800,4162,-720,115,41,0.587206,0.867506,1.071457
16449545,-432,22830,5468,-900,306,33,0.619798,0.870278,1.06318
16465172,273,22608,6790,-1067,185,-23,0.638234,0.870798,1.054721
16480798,-348,22794,7338,-987,-60,-81,0.686487,0.872093,1.037692
16504266,-938,22376,5620,-837,-225,-67,0.686487,0.872093,1.037692
16519892,12,21818,5516,-901,-140,-31,0.789483,0.880621,1.028363
16535518,-244,22072,5620,-876,4,-36,0.813549,0.882966,1.025387
16551144,661,21684,7002,-766,146,29,0.850613,0.885928,1.016289
16566770,-317,21084,6868,-748,18,23,0.878253,0.88857,1.00583
16582397,331,20462,6450,-919,-145,-36,0.89406,0.890617,1.001833
16598024,-867,20848,5622,-1034,-144,-92,0.938816,0.895747,0.994463
16613650,204,21106,5494,-960,-14,-131,0.962514,0.897639,0.990454
16629277,-254,20908,5246,-773,-26,-101,1.017593,0.901261,0.982169
16644904,-875,20566,5782,-789,-103,-46,1.034833,0.903404,0.980924
16660530,347,19406,7332,-929,16,69,1.051601,0.905899,0.97749
16676156,-424,18582,7128,-1146,89,2,1.077071,0.910181,0.960559
16691783,360,20340,5750,-1477,-131,-126,1.093203,0.911958,0.95091
16707409,330,20828,4750,-1099,-141,-93,1.13967,0.915714,0.936559
16723038,630,19778,4642,-459,-101,47,1.157452,0.917973,0.934829
16738664,-420,18142,5572,-235,-138,76,1.179171,0.924757,0.940661
16754290,-73,16876,8282,-602,-84,43,1.198313,0.932345,0.942192
16769917,434,17120,8882,-927,49,-138,1.20788,0.934421,0.93666
16785543,-397,18388,7230,-703,91,-254,1.218152,0.934502,0.929982
16801169,-993,19726,3998,-360,-71,-28,1.237418,0.933644,0.925876
16816796,-261,18888,3914,-209,-31,113,1.256405,0.939101,0.933199
16832421,757,18140,4728,-17,244,137,1.262329,0.942477,0.936918
16848047,538,18044,8256,-36,502,27,1.25884,0.945406,0.938441
16863673,-612,16778,9330,44,171,5,1.252623,0.944322,0.936129
16891291,-517,16932,5424,225,-367,87,1.267921,0.955294,0.958524
16906918,76,18878,3700,358,-374,145,1.277808,0.961,0.969712
16922545,-898,19486,4548,433,-137,48,1.287257,0.96642,0.98302
16938172,-487,19334,7006,398,141,-61,1.296632,0.97091,1.005755
16953799,-160,17748,8726,294,194,-76,1.294932,0.97035,1.0123
16969425,485,17028,8094,60,53,-85,1.289748,0.969329,1.018289
16985050,171,18192,6032,-108,10,-30,1.291291,0.969768,1.020345
17000676,910,19408,5318,-42,80,54,1.299029,0.972109,1.024305
17016302,-282,19898,5724,203,62,61,1.303748,0.974761,1.03045
17031928,986,19094,6804,491,49,78,1.304602,0.975903,1.036568
17047554,-353,17702,7472,363,-31,106,1.301588,0.978657,1.051147
17063180,-447,17832,6264,34,-248,43,1.302628,0.981067,1.0565
17078806,-28,18956,5074,-151,-304,-6,1.321476,0.987025,1.068435
17094433,-205,19724,4610,-94,-133,-40,1.334388,0.989361,1.074771
17110060,780,19748,5112,100,20,-44,1.351322,0.991302,1.086191
17125687,-205,18992,7154,144,-42,44,1.356761,0.99199,1.095874
17141314,922,17968,7362,-4,-181,26,1.356761,0.99199,1.095874
17156939,-497,18322,6536,-167,-68,25,1.365492,0.994938,1.103913
17172565,-87,19154,5618,-172,119,-20,1.375844,0.997789,1.106694
17188192,399,19516,5332,-68,148,-37,1.378434,0.99745,1.106182
17203818,-815,19558,5992,93,29,-49,1.379327,0.996971,1.107436
17219444,619,19028,6780,197,-163,3,1.385763,0.997072,1.116567
17235070,665,18026,7040,83,-273,64,1.392657,0.998642,1.123326
17250697,-494,18096,6322,-154,-81,63,1.408703,1.003258,1.13377
17266323,348,18920,6032,-191,77,26,1.4159,1.006136,1.134414
17281949,727,19408,6136,-85,112,3,1.416393,1.006423,1.133174
17297576,-127,19094,6514,24,7,-34,1.417342,1.005948,1.133616
17313203,-106,18730,6932,54,-163,-32,1.420622,1.005915,1.136677
17328830,729,18498,7014,-48,-191,-16,1.434161,1.0075,1.145773
17344457,50,18572,6300,-81,-84,-7,1.440736,1.008536,1.149015
17360084,411,19078,5564,4,13,-42,1.449095,1.009668,1.152753
17375709,779,18864,5610,28,-29,-54,1.455748,1.009675,1.157952
17391336,500,18824,6302,10,-104,-39,1.455748,1.009675,1.157952
17406962,-325,19114,6708,29,-126,-25,1.470805,1.010262,1.169009
17422589,601,18720,6346,-14,-67,7,1.475827,1.010813,1.172287
17438215,170,18656,5824,-14,-30,-3,1.482527,1.011919,1.176426
17453842,555,18854,5662,-24,-58,-12,1.485137,1.012434,1.178124
17469468,138,19172,5986,-20,-76,-27,1.493857,1.013273,1.183237
17485094,-433,19148,6558,2,-98,-9,1.502597,1.014178,1.188689
17500720,-546,19112,6790,23,-47,-20,1.506632,1.01438,1.191136
17516346,697,18830,6410,43,-19,7,1.511377,1.014501,1.194691
17531973,-866,18662,6190,19,-44,4,1.512691,1.014863,1.1963
17547598,-87,18812,5936,2,-77,-17,1.518269,1.015748,1.200149
17563223,119,19198,6006,46,-56,-13,1.521876,1.016222,1.202572
17578849,-839,19236,6726,24,-95,-16,1.529091,1.016509,1.208027
17594476,-974,19046,7006,-43,-120,-26,1.532681,1.016694,1.210342
17610102,-212,18992,6408,-64,-55,-34,1.540441,1.016964,1.21362
17625729,393,18820,5886,-17,-4,-44,1.54548,1.016863,1.215334
17641355,65,18954,6026,77,19,-42,1.54548,1.016863,1.215334
17656982,242,18798,6428,91,-18,-7,1.549535,1.016216,1.219933
17672608,228,19088,6724,21,-67,-8,1.550748,1.016343,1.221631
17688235,548,18896,6444,-50,-95,-4,1.556089,1.016934,1.224681
17703861,-796,18912,6086,-23,-66,31,1.559034,1.017399,1.225917
17719488,906,18978,5652,-53,-38,-10,1.563679,1.018554,1.228107
17735115,-324,19388,6128,47,-13,-40,1.568385,1.018548,1.230611
17750742,-507,19228,6368,77,-19,-42,1.570117,1.018145,1.232285
17766367,546,19128,6690,36,-20,-15,1.57302,1.017458,1.235439
17781993,-985,18928,6680,-31,-9,-21,1.573485,1.017515,1.236002
17797619,152,19126,6032,-31,-27,-21,1.574686,1.017249,1.235816
17813245,471,19198,5612,-8,-19,11,1.576296,1.017261,1.236644
17828871,-596,19420,5940,67,-23,25,1.579474,1.017817,1.238827
17844498,347,19130,6142,149,-43,10,1.580838,1.01821,1.240664
17860125,-9,18848,6412,92,-116,-20,1.584269,1.018716,1.245675
17875752,238,18884,7100,-70,-147,-38,1.592041,1.019187,1.251127
17903360,754,19502,5882,-47,-81,-22,1.592041,1.019187,1.251127
17918986,799,19650,5970,-9,17,-4,1.605139,1.019533,1.255112
17934612,-683,19434,6238,63,122,1,1.605033,1.019247,1.255062
17950237,508,19158,6500,49,146,-5,1.599138,1.01838,1.253186
17965862,-93,18536,7176,-4,10,-13,1.591165,1.017386,1.24973
17981488,-836,18844,6704,-117,-187,-47,1.591261,1.017366,1.249389
17997114,532,19514,5802,-116,-235,-30,1.602748,1.018018,1.252915
18012741,943,19818,5460,-22,-130,16,1.609983,1.018507,1.255725
18028368,-538,19558,5482,73,-60,49,1.621189,1.020015,1.263256
18043994,-655,19096,6302,95,-4,59,1.621704,1.020588,1.264465
18059621,867,18582,7010,-77,6,-7,1.620181,1.020902,1.26394
18075248,-683,19064,6482,-163,-32,-48,1.61798,1.020795,1.260414
18090874,-367,19720,5886,-121,-21,-33,1.618698,1.020395,1.259109
18106501,796,19888,5824,35,16,3,1.620347,1.019608,1.258247
18122127,892,19592,6084,151,0,49,1.620691,1.019469,1.259124
18137753,324,19226,6890,136,-19,78,1.620858,1.020232,1.262402
18153379,-298,18476,7188,12,-83,71,1.620171,1.022053,1.263273
18169005,-174,18732,6388,-129,-117,-1,1.621628,1.022805,1.263198
18184631,874,19506,5902,-101,-66,-53,1.627894,1.022894,1.263726
18200257,403,19630,5714,-16,27,-49,1.62991,1.022348,1.264157
18215883,-493,19640,6192,64,58,-25,1.629958,1.020908,1.264241
18231509,-120,19080,6742,78,29,36,1.629162,1.02043,1.264518
18247135,-127,18492,6672,-12,-52,48,1.62607,1.020957,1.263714
18262761,-293,18820,6162,-124,-106,-6,1.626377,1.021708,1.263607
18278386,-608,19496,5984,-91,-72,-42,1.633655,1.021909,1.264353
18294012,387,19820,5872,63,39,-40,1.63393,1.02123,1.26476
18309637,811,19434,6070,76,18,-22,1.634113,1.020485,1.265355
18325264,-608,18844,6812,-41,-68,-19,1.634771,1.019847,1.266935
18340889,405,19120,6876,-153,-172,-32,1.636453,1.019893,1.267019
18356514,-736,19322,6648,-52,-141,-18,1.644633,1.020321,1.268601
18372140,582,19336,6094,13,-69,0,1.64778,1.020454,1.269884
18387767,-807,19158,5884,3,-2,13,1.650406,1.020764,1.271498
18403393,107,19512,6394,-77,-2,-17,1.649924,1.020631,1.270474
18419020,-519,19418,6432,-91,-138,-23,1.650962,1.020456,1.270118
18434646,153,19030,6168,-47,-149,-24,1.658183,1.020645,1.27261
18450273,-311,19210,5876,-37,26,-38,1.661732,1.020681,1.274021
18465900,-641,19024,6130,16,202,-9,1.658499,1.019811,1.271696
18481526,-246,19384,6368,14,166,7,1.652269,1.019084,1.268248
18497151,460,19230,6410,-11,-36,23,1.644036,1.018454,1.263767
18512778,129,19354,6410,-73,-218,-8,1.6457,1.018872,1.264363
18528404,660,19286,6306,-80,-239,-27,1.6642,1.020225,1.272568
18544038,-850,19046,6318,-27,-87,-25,1.66822,1.020398,1.274396
18559664,-274,19122,6020,-37,10,-18,1.669695,1.020361,1.274974
18575290,-41,19304,6004,-31,76,0,1.668124,1.019987,1.273277
18590915,-471,19412,6466,-21,38,0,1.665611,1.019812,1.271676
18606542,-459,19248,6306,-50,-61,-8,1.66353,1.019363,1.269895
18622168,922,19288,6116,-112,-69,-5,1.665034,1.019398,1.270067
18637794,-598,19214,5818,-100,10,35,1.667138,1.019803,1.269267
18653420,-4,19126,5688,6,46,55,1.664084,1.021091,1.267165
18669047,-932,19008,6248,24,-88,7,1.664084,1.021091,1.267165
18684673,412,19188,7338,-100,-175,-39,1.666175,1.021645,1.26871
18700298,459,19348,7042,-178,-151,-51,1.672985,1.021717,1.27102
18715924,-501,19142,6258,-169,-43,29,1.677659,1.02153,1.270071
18731550,640,19520,5910,-78,73,19,1.676746,1.021932,1.26809
18747176,-899,19276,5462,90,121,10,1.672383,1.02159,1.26463
18762802,741,18874,6450,110,64,-16,1.669914,1.021191,1.26433
18778429,871,18508,7418,-63,-90,-49,1.668319,1.020513,1.264431
18794055,-684,18856,7026,-186,-184,-59,1.670686,1.020498,1.264349
18809681,130,19328,6124,-147,-249,-42,1.674918,1.02053,1.264845
18825308,112,19488,5752,-130,-156,-22,1.687123,1.021147,1.269488
18840934,-839,19576,5644,-13,-9,-3,1.690817,1.021354,1.270752
18856560,59,18992,6098,-7,50,-7,1.691662,1.021037,1.271198
18872186,-627,19036,7146,-127,-30,11,1.690231,1.02096,1.269995
18887813,718,18644,6944,-201,-146,9,1.689612,1.02136,1.267131
18915575,47,18884,5248,-533,13,-37,1.689612,1.02136,1.267131
18931201,-291,20014,5460,-443,102,-7,1.69368,1.022112,1.256043
18946828,959,19616,6086,-154,106,68,1.688844,1.021351,1.246324
18962454,894,18814,6504,49,73,126,1.685754,1.021461,1.243582
18978080,-270,18012,6830,0,-28,90,1.680576,1.023518,1.241315
18993706,-320,17778,6524,-199,-163,-60,1.681651,1.025729,1.240674
19009331,-303,18054,6318,-246,-180,-110,1.685766,1.025932,1.2413
19024958,209,18510,5710,-254,-162,-146,1.695242,1.025374,1.24311
19040584,-646,19026,5554,-237,12,-64,1.699392,1.024634,1.243786
19056210,-171,19278,6092,-149,164,-10,1.69903,1.023361,1.239926
19071837,-306,18734,6326,-36,105,2,1.695494,1.022786,1.236442
19087464,946,18364,6382,-68,1,10,1.691623,1.022397,1.23312
19103091,122,18002,6656,-159,-76,34,1.691589,1.022734,1.232524
19118716,-470,17678,6766,-313,-66,22,1.693048,1.024369,1.231021
19134343,230,17632,6476,-456,-96,-13,1.693072,1.025983,1.225374
19149970,261,18256,6198,-536,-58,-58,1.693072,1.025983,1.225374
19165596,24,18246,6142,-443,36,-59,1.69436,1.02625,1.21332
19181222,-498,18154,6462,-307,-10,-32,1.694036,1.025732,1.209255
19196848,390,17426,6204,-282,-102,3,1.69463,1.025937,1.204916
19212474,-249,17052,5976,-416,-149,20,1.696462,1.026986,1.203882
19228100,511,17440,6224,-564,-90,-19,1.700661,1.029701,1.200265
19243726,-486,17930,6496,-512,59,-48,1.701803,1.030719,1.191967
19259353,135,17548,6432,-399,92,-25,1.700111,1.030232,1.186519
19274979,-430,17260,5992,-454,-61,-30,1.697118,1.030009,1.177267
19290606,-824,17112,5834,-545,-165,-26,1.698974,1.030587,1.174954
19306231,436,17010,6086,-559,-118,-61,1.704648,1.032567,1.171196
19321857,-746,17282,6150,-547,-12,-89,1.706414,1.032941,1.168131
19337484,-164,16836,6206,-451,82,-59,1.707362,1.032313,1.160277
19353111,687,16284,6232,-430,44,-5,1.704127,1.032321,1.150464
19368738,944,16476,6034,-553,-18,-29,1.703092,1.033051,1.146003
19384365,-340,16664,6022,-620,7,-36,1.703331,1.034275,1.137294
19410226,640,16158,6092,-412,86,-11,1.700566,1.034932,1.12202
19425853,-591,15628,5828,-382,-18,-40,1.70058,1.035563,1.119069
19441480,581,15324,5674,-451,-94,-84,1.701782,1.036313,1.117323
19457107,936,15218,6002,-580,-96,-110,1.706277,1.038059,1.114428
19472732,124,15452,6068,-741,-36,-156,1.708553,1.038596,1.111977
19488358,-831,15568,6114,-781,-61,-92,1.7121,1.038456,1.103849
19503984,936,15198,5670,-740,-35,7,1.714269,1.039767,1.093828
19519610,822,14714,5404,-703,47,55,1.713758,1.0414,1.087898
19535236,-411,14758,4938,-684,77,3,1.710128,1.045592,1.068816
19550861,609,14658,5264,-587,97,-11,1.709193,1.046545,1.063385
19566487,174,14230,6496,-663,-22,-37,1.708735,1.047535,1.05834
19582113,814,13002,7090,-785,-251,-82,1.709537,1.048849,1.054163
19597739,296,13698,5958,-1026,-319,-144,1.71527,1.052928,1.047766
19613365,456,14872,4630,-954,-141,-80,1.722877,1.056633,1.041316
19628992,779,14440,3952,-716,48,14,1.724697,1.058035,1.036891
19644618,879,14362,3666,-501,137,44,1.724767,1.060875,1.027848
19660243,208,13318,5438,-339,135,94,1.72396,1.062296,1.024373
19675870,819,12100,7080,-384,-32,66,1.720731,1.066064,1.016751
19691497,838,11392,5924,-674,-113,-50,1.720382,1.068501,1.013821
19707123,-80,12612,5138,-1035,57,-134,1.72117,1.072144,1.003958
19722749,613,13756,3964,-990,69,-115,1.720773,1.072293,0.986612
19738375,-693,13682,3594,-729,-83,-28,1.722142,1.072776,0.981249
19754001,767,12748,3956,-547,-143,22,1.726592,1.077124,0.97905
19769627,-812,11654,5118,-540,-110,16,1.730101,1.082983,0.97868
19785254,-733,10744,7038,-630,-24,40,1.730063,1.08565,0.975315
19800881,701,9914,6984,-882,-110,-24,1.728685,1.088109,0.968862
19816507,-305,11378,4836,-1203,-154,-155,1.727624,1.092757,0.953743
19832132,840,12792,3450,-1329,-82,-191,1.729483,1.094338,0.94727
19847758,-896,12260,2948,-956,28,9,1.734149,1.096257,0.935357
19863384,999,10670,3222,-692,39,70,1.734513,1.10047,0.924935
19879010,741,9270,4542,-818,-54,32,1.733982,1.10343,0.920397
19906642,-11,8962,5556,-1320,-92,-157,1.733205,1.11386,0.890204
19922269,913,10974,3520,-1208,-68,-177,1.73484,1.114741,0.882557
19937895,879,10756,1446,-982,-130,-89,1.737265,1.116263,0.878514
19953522,342,9530,1622,-1033,20,-32,1.74136,1.12185,0.874694
19969147,-655,8440,3742,-1289,-7,-70,1.741734,1.124419,0.868865
19984773,-211,8442,4530,-1293,-178,-68,1.741801,1.129814,0.851956
20000400,774,8390,2606,-1275,-235,-75,1.742555,1.133315,0.845153
20016026,-483,8892,918,-1344,-85,-51,1.744386,1.141182,0.833887
20031652,399,8594,466,-1145,54,-15,1.745226,1.147538,0.820705
20047278,-266,7692,1034,-979,94,-24,1.744905,1.150529,0.814922
20062904,-457,7396,2220,-1113,37,-38,1.744443,1.156117,0.802656
20078530,-698,7086,3504,-1298,-5,-55,1.744159,1.158934,0.795161
20094157,-455,7788,2532,-1401,-202,-8,1.743454,1.164877,0.776764
20109784,807,8520,-162,-1091,-264,140,1.743575,1.169569,0.769897
20125410,-196,7624,-2258,-741,-179,396,1.742346,1.183008,0.764358
20141038,-513,6742,-2108,-746,49,390,1.739315,1.191273,0.760233
20156664,970,6026,1108,-621,244,167,1.729984,1.206135,0.736351
20172289,-429,5160,2262,-806,58,-55,1.728063,1.208643,0.728118
20187915,-654,6256,606,-1082,-38,-21,1.727835,1.211185,0.722922
20203542,88,6312,-1228,-1271,-54,-16,1.728118,1.218109,0.712681
20219167,-155,6560,-2242,-1199,10,-34,1.728576,1.222201,0.708372
20234794,310,5194,-2386,-1173,92,-53,1.729712,1.229605,0.701048
20250419,412,5246,-238,-1155,169,-83,1.729898,1.232776,0.695896
20266044,-112,4384,1152,-1421,-90,-57,1.729873,1.241907,0.674497
20281671,798,3812,-256,-1543,-168,-121,1.730334,1.246219,0.668337
20297298,-348,4914,-3284,-1458,-73,-147,1.731067,1.250417,0.662862
20312924,92,5438,-3898,-1016,-5,-65,1.73316,1.259122,0.659932
20328550,487,4654,-2536,-594,189,-97,1.733892,1.263099,0.661426
20344176,-763,3418,-1376,-753,169,-164,1.735057,1.26744,0.663489
20359803,899,2750,-974,-1211,-58,-200,1.735794,1.269404,0.662743
20375430,297,3458,-2408,-1354,-200,-207,1.73761,1.276258,0.659962
20391057,802,4844,-4206,-1423,-129,-149,1.740168,1.285431,0.664611
20406683,777,5084,-6092,-1532,-120,-74,1.740872,1.290408,0.665024
20422309,-283,4472,-4678,-837,88,116,1.741023,1.300939,0.667288
20437935,-859,2338,-2490,-548,-36,148,1.739051,1.305794,0.664888
20453562,-240,1298,-3238,-904,-136,-35,1.734141,1.31675,0.662281
20469188,-34,2176,-4746,-1148,-38,-196,1.732854,1.322064,0.662921
20484813,-861,3560,-6316,-1146,81,-359,1.734413,1.32904,0.671058
20500440,-410,4630,-7518,-687,215,-265,1.737386,1.330781,0.681581
20516067,451,3538,-7934,-675,404,-232,1.74312,1.334014,0.706523
20531693,245,1944,-3710,-1207,221,-18,1.743505,1.335143,0.702522
20547319,-600,2024,-3446,-1480,-174,-85,1.742162,1.338185,0.693722
20562944,-629,3600,-6252,-1128,-390,-248,1.741071,1.348422,0.70104
20578571,-351,3838,-9122,-805,-309,-318,1.741923,1.35417,0.725324
20594197,639,3448,-9222,-892,-15,-332,1.745406,1.363308,0.788035
20609823,-980,3106,-7768,-431,219,-191,1.747394,1.365716,0.811165
20625450,62,1712,-6514,-560,133,-76,1.74694,1.372616,0.842827
20641077,-350,2340,-5670,-1169,-70,-102,1.745695,1.376567,0.850308
20656703,965,3992,-7746,-951,-218,-137,1.745441,1.379936,0.862948
20672328,296,3866,-9658,-654,-257,-246,1.744911,1.387703,0.916354
20687955,-904,3986,-10330,-90,-180,-150,1.745157,1.391227,0.957533
20703581,-536,2870,-9054,302,198,49,1.742848,1.397894,1.033189
20719208,-45,604,-5114,64,88,168,1.740158,1.401106,1.049139
20734835,839,1296,-7348,-720,-167,-71,1.732195,1.410018,1.070523
20750461,7,2756,-9004,-1498,-195,-96,1.72847,1.417264,1.121281
20766088,201,4594,-8956,-1064,3,-150,1.728116,1.419087,1.146827
20781715,142,4070,-10812,346,29,107,1.726951,1.421715,1.201209
20797342,153,1572,-8364,299,115,192,1.723642,1.424837,1.235528
20812967,730,-224,-6264,-238,-136,67,1.714797,1.433103,1.285359
20828593,-457,1880,-8550,-714,-304,-57,1.710903,1.436888,1.31621
20844220,-779,4342,-9934,-849,-193,-33,1.7054,1.441434,1.406637
20859847,-105,3504,-10116,-470,-2,-2,1.703542,1.442356,1.449461
20887601,35,1630,-8264,-324,92,65,1.696273,1.445982,1.553437
20903227,-457,794,-7622,-228,-163,59,1.693122,1.693899,1.585079
20918853,-852,2596,-10018,-349,-197,45,1.689376,1.692102,1.627325
20934478,-768,3684,-11710,-589,-146,176,1.681392,1.689884,1.726858
20950104,-254,3690,-13438,-523,-59,74,1.677164,1.689195,1.779503
20965731,947,2986,-10440,-435,104,-53,1.672135,1.691035,1.863234
20981356,-784,770,-7654,152,-225,-116,1.669554,1.694155,1.921363
20996982,-313,1142,-8712,709,-271,-181,1.669554,1.694155,1.921363
21012608,240,3200,-11284,418,-113,71,1.66448,1.699033,2.020465
21028235,427,4028,-11422,77,121,133,1.658497,1.702404,2.106137
21043862,-761,2596,-10216,232,224,105,1.653818,1.70333,2.155765
21059488,8,1358,-8346,451,47,13,1.65153,1.702952,2.175565
21075113,9,1656,-8264,477,-106,-105,1.64794,1.704878,2.223864
21090740,411,2226,-8346,11,-171,-116,1.64656,1.707478,2.250701
21106367,148,3146,-9716,-95,-79,-34,1.644189,1.713739,2.294394
21121994,-159,2954,-10668,-30,-38,74,1.64129,1.718475,2.331974
21137621,-475,2616,-9996,152,20,54,1.638888,1.720326,2.354798
21153247,-536,2308,-9022,149,-106,-28,1.634824,1.723678,2.395852
21168873,961,1966,-8170,135,-136,-134,1.633415,1.726479,2.413918
21184499,-753,3290,-9180,72,-29,-98,1.632627,1.732565,2.436994
21200125,-458,3372,-10394,59,115,1,1.632334,1.734733,2.444411
21215752,-189,3004,-10166,186,137,88,1.63083,1.736731,2.460051
21231378,-396,2316,-8684,294,-101,66,1.627678,1.738458,2.487072
21247004,497,1306,-7816,143,-245,-30,1.627678,1.738458,2.487072
21262630,-723,1670,-8468,-83,-163,-36,1.621357,1.746612,2.542776
21278256,-687,3192,-10042,-2,-19,21,1.619709,1.748901,2.554836
21293882,534,2578,-10362,-79,69,-11,1.617363,1.752333,2.572189
21309508,-433,2760,-8760,-56,19,-21,1.61669,1.753885,2.577553
21325135,-406,2842,-8672,149,-126,-16,1.615497,1.75712,2.588117
21340762,798,2064,-8604,141,-92,18,1.612514,1.762069,2.612711
21356388,-941,2622,-9208,48,-38,39,1.610867,1.763768,2.624162
21372015,-442,2784,-9670,18,56,49,1.608384,1.766128,2.640286
21387641,436,2298,-9204,-90,94,32,1.6073,1.766763,2.646139
21403266,-398,2018,-8578,-112,27,-21,1.605506,1.767596,2.653912
21418892,346,2462,-7966,-36,-146,-105,1.605091,1.768645,2.656206
21434522,-499,2786,-8604,22,-304,-163,1.604895,1.774808,2.661311
21450148,153,3286,-9692,205,-192,-68,1.604722,1.77923,2.665858
21465774,675,2612,-9614,479,132,151,1.603447,1.785161,2.680684
21481401,-275,2530,-8742,485,202,203,1.599742,1.783459,2.706065
21497027,838,2264,-7802,534,112,116,1.599742,1.783459,2.706065
21512654,968,2576,-8020,466,-96,-77,1.5955,1.780866,2.739968
21528281,888,3742,-7884,625,-222,-191,1.595809,1.783034,2.744581
21543907,70,3376,-9006,1082,-98,-137,1.598563,1.789977,2.750659
21559534,-505,2344,-8338,1168,125,73,1.599463,1.791968,2.759701
21575161,53,2012,-7114,980,168,162,1.59776,1.79028,2.789583
21590788,-967,2644,-6260,838,-40,199,1.593898,1.786834,2.824196
21606414,791,3078,-6224,846,-218,175,1.591805,1.786785,2.842032
21622039,-858,2680,-7042,1003,-194,127,1.588244,1.789773,2.877416
21637665,965,2580,-7208,896,-73,128,1.587127,1.791368,2.893452
21653291,910,3076,-6762,844,74,86,1.585083,1.791865,2.920907
21668917,767,3064,-6140,994,60,102,1.585,1.790791,2.930134
21684543,-801,3096,-5220,939,-82,9,1.584929,1.78914,2.949991
21700169,-291,3508,-5054,978,-183,83,1.585624,1.789647,2.956587
21715796,-386,3532,-5050,835,-169,163,1.585848,1.791496,2.976041
21731422,598,3302,-5058,628,-59,185,1.584381,1.792246,2.998874
21747047,-633,3236,-5288,587,43,50,1.584381,1.792246,2.998874
21762673,289,2890,-4944,738,32,55,1.584693,1.788942,3.015681
21778299,410,3186,-4498,818,-33,-19,1.585305,1.787817,3.020253
21793924,-710,3926,-3906,939,-73,-44,1.587871,1.786536,3.025687
21809551,718,5070,-3884,1035,-99,73,1.58963,1.786116,3.027108
21825177,-702,4618,-3834,980,-63,172,1.591548,1.785225,3.039088
21840803,-275,3650,-2516,843,-84,111,1.591799,1.783703,3.056911
21856428,-28,3452,-1972,760,-104,-32,1.592452,1.782705,3.061808
21884049,762,5088,-2802,586,-143,-68,1.592452,1.782705,3.061808
21899675,909,5584,-3332,367,-196,-12,1.601354,1.780226,3.046816
21915302,-502,5444,-3676,816,-119,122,1.605835,1.781174,3.034785
21930928,-297,4198,-2180,1056,12,206,1.607155,1.780012,3.045158
21946554,-134,3086,-706,940,-57,-1,1.606746,1.778054,3.056089
21962180,733,4214,-854,775,-24,-160,1.609724,1.773657,3.056952
21977806,947,5524,-1830,818,-31,-101,1.612632,1.771371,3.048044
21993431,-35,6548,-2138,1080,-134,40,1.620386,1.7685,3.035262
22009058,167,6042,-2176,1196,-434,185,1.621786,1.770657,3.044056
22024685,-861,5094,1030,1027,-436,141,1.623222,1.773971,3.052915
22040311,-797,4392,932,969,207,39,1.624126,1.771238,3.066747
22055937,-44,5990,-244,799,325,-35,1.62434,1.765035,3.067435
22071563,-127,7244,-834,823,-1,-85,1.627956,1.754116,3.047902
22087190,988,6758,-1736,923,-270,-77,1.6316,1.752631,3.034464
22102816,672,6322,778,1027,-379,108,1.639135,1.754954,3.016848
22118443,143,5212,2564,1345,-315,93,1.642435,1.7565,3.028542
22134070,-234,4530,1980,1682,-4,-5,1.643445,1.754435,3.036041
22149696,70,7514,110,1463,292,-31,1.644442,1.750166,3.03999
22165322,907,9004,294,1670,140,137,1.647482,1.739297,3.031091
22180947,-920,9188,1308,1565,-192,103,1.650962,1.73319,3.030561
22196573,878,7720,3732,1724,-346,187,1.654133,1.732996,3.028535
22212200,-205,6820,4712,1709,-175,115,1.658458,1.731987,3.040985
22227826,-445,7352,2544,1840,49,9,1.659571,1.728799,3.044371
22243453,-815,9866,1892,2028,140,-34,1.666451,1.71645,3.024548
22259079,-673,9864,2062,2126,75,114,1.668872,1.71252,3.018152
22274704,819,10780,3000,1521,-158,72,1.67138,1.710466,3.015502
22290330,778,10526,4524,964,18,69,1.678177,1.707298,2.9859
22305956,917,11738,5086,806,47,176,1.679488,1.703277,2.962789
22321582,662,11344,3578,999,-84,198,1.681215,1.695893,2.917732
22337209,-992,10824,3420,1214,-37,181,1.683148,1.693828,2.899969
22352836,-651,11028,2658,1175,-86,-59,1.687425,1.690008,2.861516
22377501,803,12410,5980,1060,39,-221,1.708171,1.686337,2.630857
22393128,-937,13840,5742,1083,0,-83,1.708171,1.686337,2.630857
22408754,-69,13156,4352,1148,107,23,1.711918,1.685596,2.577916
22424380,918,12904,4020,1532,228,31,1.716941,1.683403,2.47635
22440006,-807,12904,4294,1357,122,-102,1.721335,1.681651,2.376559
22455633,-610,13022,6274,869,-54,-260,1.725645,1.683322,2.323368
22471260,848,14468,7926,800,-197,-131,1.737101,1.690599,2.216406
22486887,212,14986,6292,820,-167,45,1.742209,1.694268,2.175559
22502514,-813,14938,4188,1108,-10,71,1.749541,1.699491,2.11553
22518141,808,14226,3780,1378,225,27,1.753031,1.701877,2.086037
22533768,-942,14002,4456,1265,190,-28,1.757134,1.705565,2.013008
22549394,855,14784,9168,875,-44,-105,-3.140732,-3.140696,2.318572
22565020,-294,15452,7144,708,-196,-16,1.766016,1.71677,1.907225
22580646,-341,16816,4162,519,-170,-48,1.774006,1.725195,1.869687
22596271,-562,17310,4046,806,-48,-51,1.779916,1.730668,1.856348
22611897,476,15304,5614,1081,189,-49,1.790605,1.741193,1.824634
22627523,-400,15336,6844,1002,65,8,1.792907,1.748125,1.776263
22643149,256,16320,7710,771,-208,93,1.795761,1.75159,1.764642
22658774,946,16408,6842,558,-48,107,1.799366,1.754979,1.757604
22674401,-519,18064,5148,448,62,57,1.800519,1.761196,1.725441
22690028,-593,18068,5534,687,196,41,1.801521,1.769575,1.686692
22705655,957,17080,6132,1051,112,110,1.801726,1.773817,1.667594
22721280,376,16292,6392,1129,19,61,1.80477,1.780795,1.646658
22736906,986,16834,6652,724,-215,-66,1.807914,1.78451,1.641771
22752532,-950,18628,6884,485,-262,-1,1.82532,1.799363,1.641051
22768158,-889,18978,6256,329,-151,58,1.828666,1.803735,1.636529
22783785,-644,19568,5236,279,-143,11,1.831776,1.80852,1.630976
22799410,-385,18892,5516,675,-53,-39,1.841115,1.819193,1.623952
22815039,377,17972,6638,893,-104,-36,1.846306,1.824385,1.621705
22830666,103,17906,8198,1043,-103,52,1.857027,1.833289,1.621756
22846292,971,19214,7686,795,-224,21,1.861495,1.836876,1.621637
22874055,2,20186,4558,25,-136,-81,1.880502,1.854864,1.618572
22889682,-751,20426,4812,37,-33,-128,1.883397,1.860869,1.611966
22905308,-833,20796,5766,419,-15,-56,1.885613,1.866918,1.604212
22920934,333,19718,8802,875,-141,7,1.892585,1.877375,1.596326
22936561,-142,18730,8614,1199,-393,180,1.898743,1.881208,1.599136
22952187,19,17904,6480,908,-383,229,1.917426,1.885106,1.620169
22967813,-62,19848,3792,-108,-256,0,1.924801,1.886195,1.628469
22983438,351,20994,4204,-460,53,-200,1.928909,1.895068,1.620902
22999064,775,21404,6046,-444,105,-220,1.922033,1.908536,1.590182
23014690,533,20746,8168,-214,-31,-114,1.917714,1.91517,1.574419
23030317,-679,19982,7938,-15,-216,56,1.912202,1.216902,1.553262
23045943,357,19454,6420,188,-103,111,1.911603,1.214076,1.548903
23061568,845,19362,5418,42,100,73,1.908778,1.209398,1.539098
23077195,491,20478,4862,-130,148,-53,1.903552,1.2068,1.528872
23092821,-229,20644,5164,-97,92,-120,1.895966,1.198235,1.508715
23108446,95,20654,7000,-26,-76,-73,1.894238,1.19334,1.50104
23124072,772,19742,6404,-75,-253,-7,1.898435,1.182113,1.493667
23139698,907,19558,6308,-205,-166,44,1.899106,1.179589,1.491183
23155324,767,20254,6146,-224,-33,50,1.897663,1.177378,1.486654
23170950,212,20512,6226,-41,17,3,1.891565,1.172157,1.47278
23186577,312,20032,5906,115,-10,-77,1.889799,1.168889,1.467493
23202204,657,19704,6394,142,5,-119,1.890472,1.161253,1.461462
23217830,-827,19596,6942,-38,-79,-104,1.890706,1.157428,1.45839
23233457,-711,19918,7432,-184,-39,-31,1.888897,1.150614,1.449724
23249084,529,20342,5884,-169,-19,54,1.882505,1.145683,1.436648
23264711,-177,20290,5524,-16,-23,87,1.879996,1.143731,1.431535
23280338,-186,20012,5434,56,-18,34,1.877675,1.140232,1.425909
23295964,997,19764,6188,14,-26,-47,1.8773,1.138012,1.423736
23311590,-544,19284,7096,-3,-149,-15,1.877501,1.132749,1.419667
23327216,859,19500,6224,-129,-223,12,1.878409,1.1309,1.418953
23342843,6,19952,5966,-138,-111,-16,1.880868,1.127659,1.41742
23358470,837,20602,6326,-85,12,-19,3.14086,-0.000366,-0.000122
23374096,-408,20394,5874,-4,-2,0,3.14086,-0.000366,-0.000122
23389722,-883,19806,6366,-5,-40,-13,1.876066,1.117985,1.40326
23405348,-875,19376,6830,-59,-81,-23,1.875473,1.113745,1.399053
23420974,86,19506,6274,-129,-120,-11,1.874527,1.110127,1.394544
23436599,-882,20172,6068,-110,-101,12,1.87445,1.108556,1.392502
23452225,853,20316,5838,-21,-28,26,1.874346,1.105422,1.389081
23467851,559,19992,6292,-3,-66,34,1.87347,1.103887,1.386955
23483477,-5,19632,6194,-16,-52,12,1.873124,1.100937,1.384242
23499104,246,19546,5866,-73,-85,-21,1.872401,1.098075,1.380877
23514731,570,19910,6392,-84,-92,-22,1.872862,1.09648,1.379707
23530357,854,19702,6246,3,-44,27,1.873128,1.093405,1.376897
23545983,-3,19682,6050,-54,-44,0,1.872297,1.092138,1.375304
23561609,65,20098,6436,-59,-21,-10,1.870717,1.089371,1.370986
23577235,5,19868,6322,-24,-79,-6,1.869933,1.087727,1.368717
23592861,640,19712,6370,5,-77,-25,1.870362,1.084834,1.366836
23608487,451,19480,6384,-68,-85,-49,1.87228,1.081864,1.366101
23624113,-782,19832,6578,-73,-19,-3,1.87228,1.081864,1.366101
23639739,-34,20018,5874,-48,-49,25,1.871046,1.078826,1.361891
23655365,-119,20218,5580,-34,-83,3,1.869519,1.076843,1.358387
23670991,-658,20246,5886,-13,-44,-20,1.87131,1.074436,1.358206
23686617,-642,20114,6586,21,-81,21,1.871862,1.0731,1.357727
23702244,759,18996,6812,-25,-98,24,1.872315,1.071256,1.356932
23717870,-946,19398,6852,-165,-125,-29,1.872063,1.070728,1.355789
23733497,814,20084,6144,-147,-64,-62,1.871795,1.06853,1.352145
23749123,-64,20248,5818,-58,-64,-46,1.872323,1.065339,1.348983
23764750,198,20008,5890,8,-26,-60,1.873347,1.06381,1.348653
23780376,-190,19918,6530,-12,15,-44,1.874336,1.060531,1.347553
23796001,-937,19468,7064,-71,-57,7,1.873467,1.059142,1.34568
23811626,181,19542,6618,-66,-49,36,1.870849,1.057781,1.341099
23827253,430,19296,5936,-60,-17,23,1.869643,1.057365,1.33919
23842880,-36,19954,5940,-86,-9,-21,1.867435,1.056156,1.335348
23858506,861,20008,5998,-11,-43,0,1.866584,1.054218,1.332473
23886011,96,19164,6404,-4,-119,24,1.866584,1.054218,1.332473
23901636,-970,19388,6518,-101,-83,-12,1.869849,1.052477,1.333606
23917262,38,19688,6606,-69,6,21,1.869088,1.051977,1.331986
23932888,905,20040,6060,-71,33,-4,1.865577,1.050595,1.326651
23948514,-412,20160,5902,-21,46,-7,1.862603,1.04851,1.321816
23964141,619,19646,6238,25,50,-5,1.861607,1.047461,1.320237
23979767,-149,19480,6378,3,14,8,1.859598,1.045776,1.317435
23995394,-913,19412,6746,-59,-103,29,1.858794,1.045343,1.316271
24011021,978,19608,6400,-77,-119,-6,1.860007,1.044893,1.315431
24026652,161,19818,5762,-67,-27,-2,1.859883,1.044369,1.314604
24042277,-748,19798,5958,-33,38,-3,1.859611,1.043471,1.31343
24057903,78,19556,6496,-62,25,-39,1.857315,1.041613,1.309678
24073528,-910,19478,6568,-83,-46,-35,1.856626,1.040561,1.308096
24089154,498,19570,6828,-103,-85,-13,1.856497,1.039021,1.305682
24104781,198,19646,6332,-57,-87,3,1.856441,1.038678,1.304762
24120407,-861,19700,5676,-3,-58,57,1.857276,1.038301,1.304388
24136039,-141,19402,5748,-35,-31,35,1.85766,1.038668,1.304793
24151665,793,19460,5942,-44,-5,-14,1.857393,1.038497,1.304178
24167292,-125,19368,6202,-98,36,-72,1.857128,1.037784,1.303202
24182919,639,19652,6858,-96,12,-10,1.855377,1.035377,1.298799
24198545,100,19436,6296,28,-30,37,1.853294,1.034135,1.295131
24214171,843,19576,5932,27,-6,-6,1.853057,1.034123,1.294891
24229797,-147,19610,6324,-15,-15,-54,1.853276,1.033154,1.294925
24245424,-17,19748,6366,-90,-40,-64,1.853664,1.032271,1.294612
24261050,396,19688,6366,-120,-59,-50,1.855436,1.029656,1.292733
24276676,816,19742,6458,-77,-86,10,1.855748,1.029391,1.292185
24292302,-932,19304,5748,40,-14,20,1.856493,1.029461,1.292591
24307928,25,19370,6296,14,-6,5,1.85639,1.029412,1.293005
24323555,-496,19390,6122,-5,-38,-23,1.856434,1.0293,1.292873
24339181,-373,19670,6328,-6,1,-46,1.857181,1.02814,1.292747
24354808,204,19274,6610,-61,-13,-16,1.857095,1.027422,1.292136
24370434,-663,19546,6604,-136,-14,-15,1.855906,1.026523,1.28939
24386060,-329,19720,6186,-101,-50,12,1.854481,1.026078,1.286066
24401686,-199,19772,6146,-11,-62,7,1.855091,1.026063,1.286165
24417313,-19,19384,6036,117,-8,7,1.855684,1.025986,1.286764
24432939,-444,19138,6264,43,25,-33,1.856827,1.025723,1.288765
24448564,-951,19370,6396,-119,-21,-64,1.856365,1.024634,1.287774
24464189,581,19754,6288,-176,-61,-42,1.856226,1.023931,1.28643
24479815,867,19938,5886,-159,-73,-28,1.857097,1.022856,1.284394
24495441,826,19668,6050,-25,-17,26,1.857625,1.022585,1.283906
24511068,803,19356,6298,58,-3,45,1.857078,1.023115,1.283699
24526694,-140,19214,6558,30,-50,1,1.856805,1.023237,1.283768
24542320,-327,19494,6256,-94,-70,-43,1.857579,1.023029,1.284036
24557946,-152,19714,6582,-121,-50,-23,1.858843,1.022228,1.283443
24573573,475,19486,6264,-40,-27,-5,1.858865,1.021877,1.282617
24589200,-384,19566,6176,-9,-14,0,1.859018,1.021424,1.281919
24604825,449,19450,5976,12,-14,7,1.858976,1.021325,1.281704
24620450,-584,19384,6368,-49,-45,22,1.858887,1.021505,1.281619
24636076,603,19434,6992,-142,-117,-2,1.858887,1.021505,1.281619
24651701,454,19558,6308,-144,-215,-54,1.860888,1.021862,1.281178
24667328,-663,19404,5798,-50,-51,-66,1.866228,1.021304,1.284366
24682955,261,19268,5912,10,50,-18,1.866935,1.020853,1.284582
24698581,-573,19330,6362,-50,51,20,1.865238,1.020238,1.282622
24714207,87,19514,6696,-117,-51,47,1.863701,1.02033,1.280709
24729833,-315,19362,6446,-64,-154,48,1.862892,1.021391,1.278779
24745459,173,19212,5982,48,-112,15,1.864221,1.022207,1.280228
24761085,-252,19026,6048,72,7,-26,1.866572,1.022557,1.283523
24776710,697,19250,6396,45,69,-17,1.865671,1.0221,1.28254
24792335,-534,19380,6008,-29,42,-30,1.864024,1.021604,1.280966
24807961,121,19876,6066,-60,-9,-30,1.86313,1.020421,1.278812
24823588,-50,19594,6212,-10,-83,14,1.863486,1.020062,1.278671
24839214,-10,19406,6276,-24,-86,31,1.865476,1.020576,1.280445
24854841,540,19304,6828,-64,-24,35,1.865855,1.021024,1.280873
24870468,-200,19722,6730,-58,-40,9,1.864399,1.021486,1.27874
24898066,-420,19302,5852,51,-24,-77,1.864399,1.021486,1.27874
24913692,-963,19322,5990,16,-15,-68,1.867135,1.019418,1.280322
24929319,684,19570,6306,-46,-34,-10,1.868587,1.018341,1.281116
24944946,525,19338,6450,-6,-62,51,1.868536,1.018351,1.280747
24960572,-530,18790,6172,-5,-71,46,1.868893,1.019505,1.28153
24976198,-554,19340,6202,-89,-32,-16,1.868911,1.02021,1.281605
24991824,-297,19814,6302,-17,-29,-47,1.869107,1.019775,1.280504
25007450,237,19806,6132,37,22,-60,1.87026,1.018345,1.280799
25023076,256,19660,6590,-25,-22,-10,1.87026,1.018345,1.280799
25038703,-809,19200,6902,-91,-58,35,1.870533,1.017272,1.280038
25054329,675,19294,6682,-63,-97,50,1.869898,1.017803,1.278935
25069956,2,19280,5940,45,-120,38,1.870514,1.01913,1.279388
25085582,-190,19172,5742,25,-94,-30,1.872078,1.019833,1.281592
25101209,229,19674,5692,-73,-41,-68,1.875399,1.019615,1.284621
25116835,343,19694,6670,-41,49,-25,1.876003,1.018184,1.283698
25132461,45,19012,6718,-2,9,61,1.874689,1.017759,1.281949
25148087,-212,19040,6592,-61,-103,56,1.871908,1.019061,1.279622
25163713,-821,19376,6350,-63,-123,-8,1.872235,1.019927,1.279738
25179340,-339,19618,5718,-38,-32,-85,1.874896,1.019889,1.281485
25194966,-758,19560,6146,-17,23,-61,1.875888,1.018916,1.281821
25210592,-593,19526,6664,-78,-50,-17,1.876209,1.017567,1.280911
25226218,240,19280,6544,-65,-134,47,1.876259,1.017563,1.280344
25241845,-841,19378,6402,-23,-120,39,1.877677,1.018987,1.281611
25257471,-894,19466,6174,-34,-42,17,1.879252,1.020029,1.283159
25273097,903,19590,6144,-34,37,-15,1.879252,1.020029,1.283159
25288723,-433,19372,5570,-7,58,-32,1.877705,1.019236,1.280443
25304348,653,19246,5700,24,40,-22,1.877232,1.018709,1.279705
25319973,-671,19428,6054,-21,-49,-24,1.87719,1.018095,1.279581
25335600,-749,19224,6122,-23,-135,18,1.878132,1.01816,1.280292
25351226,854,19282,6580,-11,-50,24,1.880572,1.019212,1.282959
25366851,864,19352,6320,-24,47,-17,1.87995,1.019474,1.28201
25382478,597,19734,6404,-44,-12,-49,1.878958,1.01905,1.280569
25408338,469,19506,6210,-21,-127,-15,1.878958,1.01905,1.280569
25423965,475,19066,6576,10,-115,42,1.882509,1.018031,1.282635
25439591,-63,18948,6744,-15,-84,67,1.883468,1.019694,1.284254
25455217,-164,19026,5828,-70,-47,0,1.883107,1.020512,1.284165
25470843,555,19662,5794,-84,-3,-57,1.882951,1.020683,1.282979
25486470,314,19916,6320,-16,84,-41,1.882875,1.018722,1.281057
25502096,-410,19242,6728,-17,-55,-8,1.882053,1.017863,1.279726
25517721,459,19218,6868,-78,-235,-21,1.883234,1.01801,1.280147
25533347,-270,19256,6080,-88,-215,22,1.887171,1.01948,1.283942
25548974,734,19132,5566,-26,-45,-1,1.888378,1.020148,1.285113
25564600,896,19820,5628,34,61,-46,1.888759,1.020147,1.285404
25580227,445,19640,6120,92,83,-43,1.888453,1.018556,1.284728
25595852,23,19074,6396,-38,-55,-37,1.888243,1.017749,1.284463
25611478,615,19396,6312,-155,-175,-24,1.888848,1.01722,1.28461
25627104,-921,19314,5694,-87,-142,0,1.892118,1.017754,1.286322
25642730,-327,19516,5900,-4,11,22,1.893231,1.018101,1.287385
25658356,-153,19478,6414,-9,68,20,1.891797,1.018482,1.285998
25673983,976,19578,6868,-8,-6,-34,1.890402,1.018158,1.284223
25689610,330,19236,6534,-78,-134,-52,1.890551,1.017273,1.283345
25705237,-264,19180,6304,-133,-167,-38,1.892395,1.017134,1.284511
25720863,-309,19120,6414,-86,-77,24,1.89503,1.017512,1.285866
25736490,-104,19190,6106,-25,-45,37,1.894338,1.018688,1.284823
25752117,-9,19368,6358,-39,18,-14,1.894073,1.01914,1.28464
25767743,-374,19586,6676,-68,34,-84,1.893102,1.018282,1.282488
25783370,795,19618,6376,-53,4,-52,1.892572,1.016328,1.279706
25798996,-3,19222,6484,14,-91,24,1.892953,1.016142,1.279811
25814623,-512,18764,6538,-17,-201,73,1.893605,1.016767,1.281012
25830250,-774,19052,5752,-109,-212,47,1.896153,1.019719,1.284968
25845877,152,19894,5818,-87,-36,-34,1.898518,1.021139,1.286972
25861503,212,19726,6084,-5,108,-55,1.898958,1.020512,1.286627
25877128,-398,19382,6078,6,126,-27,1.896649,1.018451,1.282689
25892754,11,19238,6690,51,74,4,1.895236,1.017776,1.28074
25920233,883,18978,6108,-76,-165,-5,1.895323,1.019005,1.28129
25935858,775,19174,6106,-95,-182,-17,1.897232,1.019407,1.283076
25951485,339,19516,5738,-82,-116,-36,1.899088,1.019711,1.284644
25967112,-9,19560,6486,-22,15,-27,1.901323,1.019475,1.286114
25982738,291,19534,6796,39,62,1,1.900765,1.019047,1.285057
25998365,-474,18802,7144,24,36,30,1.898296,1.018405,1.282118
26013991,-110,18782,6854,-82,-74,39,1.896591,1.018721,1.28037
26029617,-24,18870,5848,-133,-178,15,1.895572,1.020076,1.278746
26045243,-264,19306,5092,-107,-140,-46,1.899322,1.021119,1.282114
26060869,323,19610,5960,0,44,-54,1.901127,1.020714,1.283592
26076494,-167,19150,7066,-25,84,1,1.900529,1.019321,1.281915
26092120,-847,18916,7178,-50,9,35,1.898575,1.019019,1.27924
26107747,-241,18514,6186,-68,-112,3,1.895794,1.019629,1.275607
26123374,-847,18788,5130,-86,-189,-62,1.896801,1.020122,1.27652
26139000,31,19780,5256,-43,-117,-72,1.902313,1.020327,1.281966
26154627,966,19822,6004,55,29,-11,1.904556,1.019898,1.284099
26170253,121,19128,7248,-16,103,77,1.901501,1.019809,1.280932
26185879,967,19382,6968,-101,72,-22,1.898284,1.019735,1.27683
26201504,-201,19270,6464,-62,-92,-43,1.896745,1.019174,1.274185
26217131,-58,19300,5852,-31,-208,-34,1.899477,1.018729,1.275927
26232756,-260,19120,5874,27,-215,2,1.902738,1.019071,1.279667
26248383,-174,19012,6192,0,-154,0,1.90818,1.02037,1.286628
26264009,-591,19204,6622,-19,-25,0,1.909163,1.020868,1.288014
26279634,-481,19306,6344,-6,41,-1,1.908301,1.020824,1.286727
26295260,-220,19266,6100,-45,3,0,1.906179,1.020454,1.283756
26310887,510,19352,6414,-64,-57,-5,1.905848,1.02039,1.283105
26326513,759,18940,6564,-48,-114,2,1.906494,1.020612,1.283015
26342139,-129,18920,6980,-84,-143,-2,1.90724,1.021015,1.283659
26357766,567,18958,6622,-45,-71,3,1.908345,1.021683,1.284249
26373392,-513,19282,6226,-9,-13,-7,1.907979,1.021969,1.283806
26389018,200,19484,5768,2,-17,-6,1.907806,1.021783,1.283097
26404644,-492,19278,5812,-58,-43,-42,1.908248,1.021597,1.283456
26420270,-163,19054,6008,-50,15,-4,1.908779,1.020785,1.282397
26435897,-34,18858,6426,-19,54,25,1.9076,1.020745,1.280818
26451522,-623,18936,6506,-45,41,32,1.906183,1.020972,1.279164
26467147,884,19454,6246,-58,-43,13,1.90325,1.021683,1.27555
26482773,-89,19258,6468,-40,-170,23,1.903593,1.021758,1.27561
26498398,-169,18976,5992,-28,-199,11,1.906867,1.022949,1.279565
26514023,709,18824,5996,-54,-72,2,1.908639,1.023589,1.281911
26529650,-264,19256,6350,-99,19,-12,1.908962,1.024021,1.281879
26545276,615,19154,6544,-42,-24,25,1.907415,1.023634,1.27876
26560901,-973,19316,6046,21,-26,24,1.906848,1.02384,1.278032
26576528,278,18970,5900,40,4,-21,1.906965,1.024099,1.278535
26592154,542,19236,6026,18,70,-51,1.907236,1.023811,1.278719
26607781,-571,19160,6632,-3,22,-35,1.906123,1.022474,1.276742
26623408,-705,18838,6912,-76,-87,-12,1.906067,1.022105,1.276099
26639039,832,18962,6634,-138,-182,-6,1.906683,1.02254,1.276072
26654665,-830,18948,5972,-89,-138,-3,1.908135,1.022983,1.276987
26670292,-903,19250,5668,2,35,-7,1.910065,1.02378,1.278625
26685919,376,19432,6308,45,110,-19,1.909393,1.02329,1.277719
26701546,-18,19146,6788,54,129,-10,1.908111,1.022722,1.275977
26717172,966,18794,6812,-43,-53,-26,1.905454,1.021526,1.272346
26732799,-475,18762,6664,-127,-179,-50,1.905744,1.02151,1.272182
26748425,-259,19106,5924,-82,-129,-39,1.908924,1.021813,1.2745
26764051,-819,19606,5350,-21,35,-15,1.91012,1.021774,1.275523
26779678,-478,19618,5496,82,177,21,1.90959,1.021015,1.274437
26795305,17,18786,6830,77,55,4,1.90686,1.020148,1.271644
26810932,830,18422,7172,-31,-252,-28,1.906695,1.020061,1.271644
26826558,-539,18700,6566,-107,-420,-48,1.912011,1.021425,1.277869
26842184,135,19394,5560,-61,-242,27,1.916128,1.022387,1.282813
26857811,301,19356,5592,-17,33,15,1.919775,1.023941,1.287699
26873437,-868,19784,6072,-34,112,-58,1.919254,1.023709,1.286809
26889064,-396,19368,6782,49,177,-52,1.916744,1.02164,1.281873
26904691,-727,18830,7130,-4,-5,-41,1.914118,1.019414,1.277353
26932292,89,18852,6384,31,-110,29,1.915313,1.02137,1.280209
26947918,-939,18986,5706,52,-128,3,1.915313,1.02137,1.280209
26963545,-90,19592,5572,-25,-135,-61,1.917017,1.021806,1.28267
26979172,995,19766,6096,32,-80,-51,1.9213,1.021162,1.287137
26994797,-738,19264,6116,130,-12,1,1.923481,1.020358,1.289797
27010423,-224,19176,6716,237,15,57,1.923985,1.020244,1.290969
27026049,-810,18780,7050,414,16,50,1.923469,1.021322,1.293783
27041676,334,19388,6606,494,-32,1,1.923688,1.021681,1.296538
27057302,742,20242,6256,549,-90,-54,1.932634,1.020859,1.313852
27072928,870,20930,6576,720,-217,-43,1.938422,1.020109,1.323298
27088554,983,19788,5186,751,-250,-104,1.946035,1.019575,1.335199
27104180,-854,19884,6072,609,-1,-117,1.95405,1.018623,1.346813
27119805,161,20022,6756,649,197,49,1.962554,1.016222,1.360086
27135430,626,20524,7088,711,187,118,1.960559,1.015881,1.363055
27151056,-73,21018,6434,898,11,101,1.959592,1.016421,1.365192
27166682,-128,21016,5560,1194,-86,58,1.966313,1.017248,1.380898
27182308,-761,21490,5038,1215,-217,52,1.983943,1.017767,1.408931
27197934,908,22280,6240,1146,-142,-1,1.994142,1.017562,1.423245
27213559,-346,22390,6710,1159,-50,-23,2.003001,1.016536,1.435216
27229185,458,22860,6252,1183,-58,9,2.017698,1.014158,1.454406
27244812,964,22966,5990,1297,-52,114,2.03345,1.012716,1.47423
27260438,591,22596,5158,1387,-131,200,2.04247,1.012983,1.485759
27276065,728,22714,4718,1448,-72,180,2.06398,1.015317,1.512453
27291691,-602,23970,4486,1423,48,63,2.075576,1.015929,1.525193
27307316,-791,26460,7770,1584,-55,44,2.117725,1.012656,1.561739
27322942,-881,25094,6898,1945,-465,203,2.143321,2.129279,1.581802
27338568,-30,22572,4400,1632,-194,95,2.171547,2.129291,1.60287
27354194,-777,23812,3416,930,201,-59,2.202244,2.130609,1.621554
27369820,-946,25710,3472,742,208,-88,2.208303,2.132313,1.622976
27385446,-350,27604,4146,1003,-83,-90,2.222199,2.137681,1.625648
27401072,-395,28138,4528,1791,-85,57,2.24154,2.140639,1.634111
27416697,-320,28130,4738,2360,30,50,2.363304,2.146783,1.683235
27432323,-238,26998,4262,2130,-72,85,2.416209,2.14842,1.700466
27447949,322,26540,2686,1807,-182,4,2.471631,2.149883,1.717323
27463575,471,27082,2214,1508,-191,-79,2.527922,2.152178,1.732797
27479201,326,29194,1908,1344,-199,-144,2.637933,2.158293,1.75875
27494827,-716,29428,3246,1646,-73,-77,2.753022,2.16638,1.780614
27510453,-7,30724,3146,1958,254,-26,2.82434,2.169441,1.791397
27526079,-2,30136,2838,2593,289,194,3.015475,2.173007,1.810704
27541705,-43,29474,982,2802,-46,402,-2.95913,2.170745,1.851877
27557332,-420,28838,-418,2072,-335,244,-2.826281,2.169875,1.875324
27572959,-97,30012,-1018,1161,-469,72,-2.734337,2.171052,1.895018
27588585,121,31736,-270,699,-318,117,-2.654923,2.177227,1.916511
27604212,-446,32767,2862,1166,209,195,-2.588262,2.181087,1.920791
27619837,690,32767,2484,1751,285,25,-2.527314,2.181146,1.920679
27635464,381,32767,30,2036,270,-110,-2.357892,2.18447,1.928001
27651090,834,32016,-2132,2220,181,-69,-2.272894,2.187383,1.935923
27666717,-487,30312,-2262,1995,128,12,-2.078705,2.194286,1.971451
27682343,-517,30606,-1394,1320,61,61,-2.041806,2.195261,1.977613
27697970,-162,32767,-1886,836,-118,-47,-2.016728,2.197063,1.980342
27713597,-665,32767,-1938,831,-243,-43,-3.141538,-0.008084,-0.029491
27729224,-78,32767,-1936,1235,-282,114,-1.972297,2.208989,1.98622
27744850,-118,32767,-2536,1509,-479,131,-1.943289,2.214106,2.004348
27760477,791,32100,-3882,1463,-381,30,-1.933075,2.217925,2.018559
27776104,138,32564,-3040,1373,-133,97,-1.889093,2.226116,2.048194
27791730,510,32767,-3058,1195,76,-46,-1.867666,2.228086,2.051236
27807357,567,32767,-3122,847,136,-193,-1.844801,2.230443,2.049856
27822984,720,32767,-4374,658,-23,-220,-1.824186,2.233663,2.046
27838610,675,32767,-5596,809,-157,-84,-1.79559,2.242113,2.04172
27854237,-733,32767,-5168,1277,-199,79,-1.777354,2.248906,2.048656
27869864,-35,32767,-5716,1717,-169,153,-1.768672,2.250868,2.058202
27885489,-859,32767,-6128,1789,73,86,-1.746022,2.253143,2.083932
27913080,605,32767,-5222,885,269,-71,-1.746022,2.253143,2.083932
27928706,-807,32767,-6016,578,7,-105,-1.677916,2.255955,2.089724
27944332,-899,32767,-7336,727,-98,56,-1.657728,2.26098,2.085416
27959959,382,32767,-7600,1018,-70,233,-1.652043,2.262471,2.087734
27975585,749,32767,-7268,1449,-27,335,-1.64212,2.261477,2.101696
27991211,415,32767,-7304,1803,55,368,-1.636793,2.260201,2.112003
28006836,320,32767,-7930,2209,-4,382,-1.624231,2.256553,2.140406
28022462,-621,32767,-9322,1977,26,212,-1.611849,2.254696,2.173086
28038088,372,31896,-9688,1070,4,-54,-1.604466,2.256019,2.181963
28053714,138,32767,-9742,621,-18,-88,-1.588202,2.261509,2.182094
28069339,-71,32767,-10592,644,-45,-136,-1.580505,2.264335,2.179997
28084965,-943,32767,-11320,934,-57,-123,-1.566025,2.271295,2.178828
28100591,-737,32767,-10862,1238,8,-62,-1.559764,2.274684,2.181987
28116216,233,32767,-10500,1331,2,-12,-1.54684,2.27913,2.193416
28131842,-467,32292,-9832,1085,-47,30,-1.54062,2.280864,2.199389
28147468,96,32767,-10134,727,-53,123,-1.525994,2.284088,2.206672
28163093,-582,32767,-12242,-112,-97,-2,-1.521523,2.285367,2.201642
28178720,-201,32767,-12174,-15,-86,-59,-1.516698,2.288121,2.19413
28194346,-316,32767,-12740,299,-46,-87,-1.506017,2.293804,2.182524
28209972,909,32767,-12382,595,25,-135,-1.500791,2.296695,2.180102
28225599,884,32767,-11336,880,-2,-111,-1.488154,2.302166,2.179546
28241226,738,32767,-10876,924,24,10,-1.482567,2.30431,2.181781
28256852,-644,32767,-11738,550,10,39,-1.472363,2.306309,2.185898
28281500,113,32767,-12738,-227,-51,-125,-1.472363,2.306309,2.185898
28297127,-999,32767,-11688,-152,-22,-137,-1.44984,2.31476,2.161783
28312753,786,32767,-12322,219,-119,-123,-1.443538,2.317508,2.154343
28328379,-249,32767,-12508,345,-246,-102,-1.435338,2.323799,2.149805
28344006,-369,32767,-12494,435,-311,92,-1.432572,2.330396,2.151208
28359632,782,32767,-12836,625,-204,209,-1.433874,2.332237,2.154391
28375259,-886,32694,-13004,554,-25,270,-1.436043,2.332472,2.163243
28390885,638,32254,-12704,29,63,65,-1.431373,2.330809,2.16154
28406511,830,32767,-12082,-499,-19,-106,-1.425021,2.332099,2.152464
28422138,450,32767,-12464,-437,-31,-116,-1.41863,2.334149,2.141242
28437764,-669,32767,-11984,-161,88,-136,-1.405388,2.338598,2.12217
28453391,102,32767,-12028,-55,12,-116,-1.391169,2.341827,2.106846
28469017,-887,32767,-12782,220,-183,-5,-1.385891,2.343782,2.101965
28484643,599,32767,-12374,184,-289,158,-1.385448,2.347287,2.102704
28500270,-172,32767,-12764,-37,-265,198,-1.387962,2.348068,2.104131
28515897,-319,32767,-13350,-310,-51,122,-1.39008,2.348775,2.100638
28531523,695,32767,-14344,-405,133,-25,-1.387192,2.348778,2.09435
28547148,946,32767,-13926,-344,150,-163,-1.374621,2.350538,2.077619
28562774,330,32767,-10926,-42,107,-165,-1.360155,2.35445,2.063322
28578400,-625,32767,-9868,11,-39,-119,-1.353866,2.355916,2.058085
28594027,-97,32767,-10872,-290,-158,-81,-1.343936,2.359432,2.048418
28609653,737,32767,-12602,-245,-176,58,-1.341043,2.361136,2.042635
28625279,164,32767,-13640,-120,-58,116,-1.339464,2.362338,2.034153
28640905,-111,32767,-13024,-225,-77,-4,-1.337872,2.363169,2.030753
28656531,-925,32767,-12174,-206,-151,-48,-1.336105,2.364737,2.027397
28672157,927,32767,-11418,-284,-110,-83,-1.334645,2.366548,2.023965
28687784,-322,32767,-11314,-206,-68,-28,-1.32868,2.369588,2.014643
28703410,661,32767,-12430,-86,-25,30,-1.32382,2.371004,2.007116
28719039,285,32767,-12886,-16,-7,10,-1.321823,2.371112,2.004589
28734665,154,32767,-12428,88,-63,-21,-1.319291,2.37205,2.002348
28750291,-506,32767,-12202,36,-145,-21,-1.318839,2.373077,2.002429
28765916,764,32767,-11706,-189,-150,-17,-1.318869,2.375319,2.001204
28781542,-491,32767,-11692,-108,-88,26,-1.318048,2.37617,1.998374
28797168,-616,32767,-12156,17,-51,45,-1.316293,2.37683,1.994527
28812794,354,32767,-12066,102,-25,62,-1.316006,2.3765,1.994363
28828421,121,32767,-12090,81,11,8,-1.315622,2.376306,1.994254
28844048,-373,32767,-11618,-98,12,-69,-1.311837,2.37689,1.991718
28871799,-662,32767,-11130,-293,-33,-48,-1.311837,2.37689,1.991718
28887425,-495,32767,-11892,-81,-105,73,-1.29885,2.379975,1.975601
28903052,-122,32767,-12206,-58,-125,23,-1.299649,2.379927,1.973607
28918679,-535,32767,-12192,-67,-93,-49,-1.300417,2.380553,1.973134
28934306,303,32767,-12210,30,24,-12,-1.298952,2.382149,1.970984
28949932,-152,32767,-12232,42,108,-34,-1.297222,2.382251,1.970081
28965558,925,32767,-12054,-144,61,-44,-1.290934,2.382337,1.966239
28981183,858,32767,-11776,-249,-67,-20,-1.288077,2.382754,1.962952
28996810,870,32767,-11716,-169,-119,26,-1.285879,2.384015,1.955833
29012437,344,32767,-11616,-69,-82,-1,-1.2863,2.384308,1.954894
29028062,-991,32767,-11046,69,-35,-20,-1.285894,2.384819,1.954049
29043688,265,32767,-11380,168,-35,18,-1.285004,2.385089,1.953954
29059315,871,32767,-12574,170,11,16,-1.28538,2.385042,1.955038
29074941,212,32767,-12726,0,88,-18,-1.284837,2.384755,1.956576
29090567,238,32767,-12464,-63,60,-40,-1.282588,2.384921,1.955194
29106192,-616,32767,-12108,-165,-41,-68,-1.277114,2.386621,1.949399
29121818,-59,32767,-11542,-135,-146,-38,-1.277023,2.38763,1.948021
29137444,769,32767,-11302,96,-193,81,-1.27878,2.388086,1.948106
29153070,678,32767,-11588,203,-159,85,-1.28576,2.387666,1.95249
29168696,690,32767,-11862,83,-76,30,-1.288919,2.387376,1.955227
29184321,-404,32767,-12280,-123,14,-83,-1.289438,2.387673,1.955796
29199946,640,32767,-12486,-350,66,-167,-1.286451,2.388554,1.95276
29215572,-225,32767,-12238,-328,19,-92,-1.276826,2.391151,1.94244
29231199,121,32767,-12248,57,-115,-22,-1.274976,2.392639,1.939268
29246826,569,32767,-11010,56,-198,54,-1.278641,2.39246,1.942061
29262452,802,32767,-10590,-144,-165,43,-1.284473,2.392519,1.944542
29278078,-627,32767,-11432,-286,-102,-18,-1.285131,2.392504,1.94296
29293705,-865,32767,-11102,-421,-98,-55,-1.282761,2.393339,1.935952
29309333,-469,32767,-11570,-273,-5,-22,-1.280666,2.393922,1.931523
29324960,-594,32767,-11744,-318,40,-128,-1.275196,2.394448,1.923993
29340586,-897,32767,-11846,-322,-72,-204,-1.268343,2.397535,1.915961
29356213,78,32767,-11654,-176,-121,-127,-1.266912,2.399556,1.913594
29371839,-827,32767,-11708,-278,-50,-11,0.236262,0.176095,-1.371367
29387465,310,32767,-11416,-310,19,6,-1.266243,2.400784,1.908363
29403090,574,32767,-11052,-363,-34,6,-1.262255,2.399711,1.90136
29418716,-820,32767,-10746,-338,-116,-2,-1.261303,2.399548,1.897979
29434342,-510,32767,-10812,-186,-108,-15,-1.261647,2.399662,1.893404
29449968,-537,32767,-10630,-221,-94,-5,-1.262578,2.399856,1.892345
29465595,-881,32767,-10216,-359,-82,-12,-1.261755,2.39965,1.884698
29481222,-865,32767,-10274,-662,-125,-27,-1.25927,2.399876,1.878727
29496849,-37,32767,-10538,-951,-122,-56,-1.25637,2.39993,1.87156
29512476,-450,32767,-10816,-973,-123,-97,-1.247727,2.401159,1.853735
29528103,846,32767,-10722,-744,-110,-81,-1.243742,2.402068,1.845341
29543729,432,32767,-10464,-298,-34,23,-1.2402,2.402958,1.83491
29559356,856,32767,-9858,-72,77,70,-1.240626,2.402074,1.833579
29574983,-649,32767,-8842,-295,54,17,-1.235874,2.398636,1.827471
29590610,441,32767,-8954,-720,-35,-13,-1.231476,2.398147,1.820989
29606237,-200,32767,-9148,-1112,-42,-91,-1.224829,2.398209,1.811889
29621863,778,32767,-9180,-1495,-128,-226,-1.20469,2.400499,1.787358
29637490,588,32767,-9044,-1446,-203,-201,-1.19281,2.402575,1.773506
29653116,619,32767,-8628,-1108,-270,-49,-1.175804,2.40576,1.750698
29668743,-952,32767,-8076,-643,-230,160,-1.175218,2.405663,1.744063
29684369,234,32767,-7524,-263,-14,296,-1.183461,2.40084,1.739187
29699996,217,32736,-7402,-406,238,223,-1.179899,2.393473,1.733936
29715622,28,31914,-7094,-990,320,10,-1.165216,2.39074,1.7256
29731248,-938,32767,-6998,-1827,152,-417,-1.140167,2.390062,1.711814
29746874,-262,32767,-6592,-2180,-170,-385,-1.063423,2.397357,1.671922
29762500,-769,32767,-6830,-1378,-152,-58,-0.985642,2.402923,1.636618
29778126,425,32767,-6886,-888,-41,141,-0.964871,2.402078,1.627542
29793752,987,32767,-5966,-942,66,14,-0.933343,2.397945,1.614952
29821381,568,32767,-4638,-664,90,-104,-0.933343,2.397945,1.614952
29837007,951,32767,-4368,-785,85,-48,-0.829341,2.397372,1.588209
29852633,157,32767,-4442,-1066,-14,-35,-0.764235,2.396564,1.574451
29868260,780,32767,-4602,-1337,-94,-158,-0.715518,0.745409,1.565514
29883886,-315,32767,-4092,-1500,-68,-232,-0.568831,0.743649,1.544585
29899512,703,32767,-3760,-1583,-41,-211,-0.459868,0.742166,1.532258
29915138,-688,32767,-2746,-1662,-86,-121,-0.168486,0.740022,1.506411
29930764,-41,32767,-1304,-1477,-264,35,0.193921,0.74181,1.481984
29946390,724,32767,-2876,-1024,-236,22,0.353383,0.743467,1.474186
29962016,-894,32384,-3070,-1051,95,25,0.593146,0.746464,1.463399
