ax,ay,az,gx,gy,gz,ax,ay,az,gx,gy,gz
32767,19964,6054,4,-98,-4,25052,4170,5330,-32,15,13
32767,20114,5786,8,-69,-6,25022,4202,5206,-10,17,16
32767,20138,5636,4,-20,-2,25036,4390,5280,6,16,8
32767,20246,5772,-3,22,-9,25002,4590,5176,3,21,8
32767,20392,6400,-34,23,-9,24958,4606,5194,-19,25,15
32767,20346,6740,-72,-21,-11,24936,4552,5172,-37,24,10
32767,20126,6772,-85,-83,-6,25008,4472,5290,-48,31,6
32767,19924,6316,-53,-130,7,24962,4342,5322,-56,35,13
32767,19802,5616,6,-107,18,24698,4274,5296,-30,33,21
32767,20040,5454,22,-41,-2,24754,4328,5344,-24,19,9
32767,20178,5862,-25,16,-17,24722,4598,5166,-18,14,5
32767,20096,6464,-71,15,-29,24860,4638,5194,-49,6,0
32767,19966,6862,-68,-32,-26,24938,4430,5110,-69,10,3
32767,19966,6562,-20,-92,-6,25022,4138,5332,-74,14,3
32767,20084,5980,15,-110,15,24882,3982,5294,-19,33,14
32767,20266,5612,-22,-65,5,24762,4142,5370,20,27,15
32767,20032,5738,-58,-4,-17,24782,4452,5326,33,9,9
32767,20006,6228,-55,8,-16,24904,4702,5164,17,13,13
32767,20024,6596,-32,-8,-11,24954,4544,5064,-14,19,15
32767,20144,6554,-26,-56,-8,24948,4438,5238,-25,22,14
32767,20102,6306,-35,-91,-6,24984,4320,5310,-23,19,9
32767,19890,5962,-14,-93,0,25036,4342,5280,-6,19,13
32767,20060,5808,10,-73,-8,25016,4554,5216,5,16,10
32767,20472,6010,-14,-38,-13,25004,4704,5230,-8,14,3
32767,20334,6064,-66,-19,-10,25002,4762,5244,-36,14,0
32767,20072,6076,-72,-17,-2,25018,4552,5218,-68,17,5
32767,19868,6132,-42,-19,13,24970,4294,5210,-71,24,10
32767,19834,6348,-28,-49,9,25016,4220,5206,-58,23,9
32767,19892,6322,-39,-64,-21,25028,4334,5148,-35,24,7
32767,19916,6064,-33,-66,-21,25070,4442,5270,-41,27,5
32767,19946,5898,4,-51,-8,24922,4292,5236,-40,32,12
32767,20134,6092,20,-27,-5,24786,4154,5182,-29,18,10
32767,20318,6314,-24,-39,-16,24970,4314,5208,-4,7,-2
32767,20130,6404,-58,-55,-15,25100,4558,5204,-10,11,1
32767,20036,6224,-51,-74,-11,25050,4574,5348,-29,19,11
32767,20014,5938,-10,-68,-5,24958,4262,5292,-33,22,15
32767,20058,5810,10,-37,2,24952,4256,5282,-12,18,12
32767,20220,5968,-9,-16,-13,24972,4422,5218,1,17,6
32767,20220,6554,-60,-30,-26,24898,4688,5150,-18,15,5
32767,20088,6524,-54,-66,-14,24974,4668,5282,-48,14,2
32767,20066,6130,-24,-86,-1,25040,4386,5232,-67,21,6
32767,20084,5750,-2,-72,8,24984,4166,5350,-50,27,12
32767,20084,5884,-18,-43,2,24884,4234,5210,-18,26,9
32767,19982,6140,-37,-21,-12,24860,4560,5242,-18,17,2
32767,20046,6300,-46,-22,-16,24912,4718,5144,-36,9,5
32767,20028,6356,-39,-46,-16,25084,4426,5270,-71,14,5
32767,20080,6094,-20,-53,0,25010,4124,5204,-63,28,11
32767,20012,5978,-25,-48,-3,24864,4054,5356,-27,24,10
32767,20000,6166,-19,-43,-12,24872,4352,5156,10,20,5
32767,20168,6276,-29,-49,-17,24954,4584,5282,-4,13,6
32767,20174,6170,-32,-53,-13,25032,4530,5314,-22,17,9
32767,20160,5990,-16,-46,1,25020,4392,5262,-41,22,12
32767,20138,6044,-13,-34,5,24934,4254,5326,-26,24,15
32767,20160,6262,-31,-31,-7,24916,4300,5242,-9,22,8
32767,20166,6330,-78,-44,-21,24938,4566,5314,-8,16,7
32767,19814,6196,-63,-52,-14,25044,4632,5254,-41,23,5
32767,19742,6040,7,-53,3,25010,4434,5272,-58,25,12
32767,19946,5918,68,-44,12,24846,4184,5252,-53,21,14
32767,20466,6194,25,-46,-4,24866,4232,5202,-24,12,3
32767,20462,6334,-71,-47,-21,25012,4494,5152,-8,10,-4
32767,20016,6108,-120,-61,-25,25200,4496,5472,-34,8,-1
32767,19764,5908,-58,-52,-6,25260,4208,5268,-43,27,17
32767,20014,5920,34,-32,11,24872,3982,5246,-23,43,26
32767,20336,6238,4,-27,-7,24776,4386,5156,32,29,6
32767,20324,6336,-62,-36,-26,24848,4802,5260,9,16,0
32767,19950,6190,-29,-63,-7,25008,4792,5284,-30,18,11
32767,20354,6030,15,-62,10,24996,4392,5368,-67,21,15
32767,20312,5938,-31,-43,0,24984,4198,5210,-43,26,8
32767,20082,6076,-82,-36,-9,24934,4370,5244,-26,22,1
32767,19754,6190,-61,-35,-5,24928,4646,5188,-22,23,3
32767,19912,6078,-10,-37,2,24914,4678,5244,-60,24,5
32767,20166,6106,-17,-36,-7,24960,4244,5228,-71,19,14
32767,20012,6080,-56,-33,-19,25114,4044,5294,-49,20,6
32767,19900,6346,-26,-53,-17,25126,4262,5234,-19,30,2
32767,20018,6246,7,-63,-3,24976,4448,5256,-20,39,9
32767,20184,5926,12,-52,-5,24876,4466,5246,-29,32,11
32767,20198,5950,-25,-29,-14,24842,4324,5302,-33,21,5
32767,20206,6172,-58,-19,-24,24972,4270,5286,-25,16,8
32767,20060,6294,-58,-24,-16,25072,4334,5228,-11,13,7
32767,19950,6300,-31,-43,-4,25042,4522,5188,-10,20,3
32767,20126,6152,-1,-52,1,25044,4550,5294,-27,23,7
32767,20170,6054,-5,-49,2,24982,4380,5256,-37,28,11
32767,20100,6060,-28,-49,-9,24956,4258,5270,-28,25,13
32767,20114,6288,-59,-59,-20,25020,4368,5278,-19,20,5
32767,20028,6134,-43,-61,-8,25048,4592,5230,-17,26,6
32767,20074,5800,-11,-51,1,24994,4584,5280,-39,24,8
32767,20058,5834,2,-24,10,25066,4480,5280,-58,26,3
32767,20148,6140,-23,-11,0,24958,4282,5336,-62,30,9
32767,20078,6486,-60,-30,-16,24900,4304,5238,-38,24,8
32767,19924,6440,-60,-57,-13,24876,4406,5164,-32,21,1
32767,19860,6098,-35,-79,-9,24900,4520,5222,-47,20,3
32767,19998,5778,9,-56,-5,24982,4324,5240,-68,21,10
32767,20210,5934,0,-30,-8,24932,4054,5322,-56,25,15
32767,20306,6068,-38,-15,-18,24900,4016,5312,-11,25,13
32767,20138,6426,-67,-33,-18,24930,4328,5214,8,22,1
32767,19946,6450,-44,-58,-6,24902,4664,5176,4,22,3
32767,19900,6066,1,-75,8,24918,4508,5276,-39,17,12
32767,20158,5948,19,-64,3,24984,4286,5300,-41,19,11
32767,20294,5812,-23,-30,-7,25058,4214,5294,-25,24,9
32767,20102,6182,-84,-10,-22,24884,4354,5206,-5,29,9
32767,19802,6562,-67,-29,-19,24798,4498,5202,-14,19,9
32767,19750,6488,-13,-66,-8,24926,4590,5226,-33,15,7
32767,20032,6248,39,-90,-4,25036,4476,5240,-53,16,7
32767,20350,5964,21,-77,-5,25048,4292,5238,-60,23,4
32767,20298,5750,-23,-40,-1,24924,4152,5336,-30,23,8
32767,20150,5942,-64,-14,-8,24922,4302,5260,-10,16,1
32767,19974,6454,-60,-23,-11,25010,4424,5296,-10,11,2
32767,19972,6334,-42,-47,-6,25080,4368,5208,-13,15,16
32767,20084,6170,-31,-60,-10,25014,4294,5140,-13,28,19
32767,20052,5952,-22,-55,-7,24982,4430,5320,-14,30,5
32767,20118,6050,-25,-46,-8,24946,4458,5258,-18,36,11
32767,20028,6216,-30,-41,-10,24876,4372,5252,-18,26,24
32767,20098,6328,-19,-50,-10,24966,4508,5148,-6,19,5
32767,20160,6198,-23,-58,0,25050,4702,5222,-21,15,-1
32767,20028,5832,-35,-44,1,25002,4572,5224,-46,21,5
32767,19948,5882,-30,-23,2,24924,4360,5232,-64,20,8
32767,19968,6154,-33,-8,-6,24990,4264,5336,-55,18,6
32767,20042,6316,-35,-20,-10,24946,4284,5198,-40,20,6
32767,20092,6442,-53,-50,-14,24938,4392,5248,-37,22,7
32767,19880,6348,-49,-80,-11,25016,4458,5274,-46,24,5
32767,19792,6014,-12,-87,-5,24994,4254,5248,-50,29,12
32767,19988,5736,30,-61,0,25004,4102,5266,-34,28,12
32767,20330,5848,7,-8,-20,24878,4238,5254,-12,23,8
32767,20348,6290,-58,1,-28,24932,4388,5240,3,16,5
32767,20128,6544,-70,-26,-18,25016,4490,5200,-2,11,7
32767,19912,6512,-38,-64,0,25030,4530,5216,-16,14,4
32767,19964,6180,12,-87,11,25006,4438,5262,-32,21,5
32767,20162,5918,9,-75,4,24976,4282,5284,-35,24,12
32767,20202,5910,-31,-49,-14,24934,4238,5282,-19,25,13
32767,20078,6198,-48,-38,-10,24904,4480,5292,-7,17,7
32767,20120,6222,-31,-54,-3,24990,4632,5200,-20,14,5
32767,20044,6058,-20,-54,4,25058,4560,5232,-47,16,7
32767,19948,5938,-12,-41,8,25072,4388,5270,-60,18,6
32767,19972,6228,-13,-31,0,24966,4194,5252,-52,26,8
32767,20136,6562,-39,-71,-18,24876,4252,5274,-32,28,10
32767,20120,6496,-70,-104,-18,24842,4346,5244,-26,23,8
32767,19940,5966,-57,-118,-11,24892,4376,5190,-27,15,12
32767,19856,5550,1,-85,4,25022,4298,5084,-24,12,9
32767,20080,5456,30,-30,6,25012,4208,5338,-21,13,3
32767,20216,5854,0,21,-5,24836,4214,5368,-10,13,10
32767,20376,6342,-54,29,-22,24794,4194,5234,6,2,20
32767,20150,6728,-76,-10,-22,24918,4438,5210,19,-4,6
32767,19842,6702,-19,-102,17,25094,4716,5148,4,1,1
32767,20062,6132,22,-138,9,25152,4608,5184,-33,14,7
32767,20232,5560,2,-113,-1,25122,4304,5276,-47,28,15
32767,20106,5390,-24,-45,-3,24944,4042,5338,-25,32,16
32767,20002,5732,-36,20,-20,24868,4176,5262,14,20,19
32767,19970,6384,-14,38,-22,24946,4582,5336,25,10,9
32767,20240,6800,0,2,-8,24922,4738,5190,6,14,10
32767,20330,6756,-19,-64,-4,24954,4730,5096,-26,7,12
32767,20208,6112,-46,-118,8,25038,4562,5224,-47,6,1
32767,19946,5616,-38,-94,14,25164,4390,5196,-54,11,0
32767,19890,5546,-17,-41,5,25184,4162,5348,-43,21,9
32767,20194,5882,-38,8,-19,25116,4114,5392,-3,27,18
32767,20256,6218,-93,27,-34,24946,4292,5206,25,28,21
32767,20034,6384,-113,8,-36,24908,4622,5178,29,14,16
32767,19792,6460,-51,-34,-20,24908,4922,5086,6,11,9
32767,20014,6234,38,-73,3,25122,4820,5280,-44,12,8
32767,20584,5988,32,-85,4,25200,4442,5264,-67,25,12
32767,20648,5828,-51,-56,-5,25130,4160,5242,-55,36,12
32767,20310,5764,-111,-16,-5,25096,4246,5228,-22,39,6
32767,19850,6096,-111,6,9,24886,4702,5202,-9,43,2
32767,19586,6252,-63,-4,16,24840,4838,5294,-40,39,4
32767,19608,6578,-42,-43,12,24766,4684,5208,-76,33,9
32767,19648,6506,-43,-81,-14,24846,4452,5256,-95,25,10
32767,19628,6042,-39,-90,-31,24950,4266,5102,-91,21,8
32767,19806,5638,15,-49,-26,25098,4256,5214,-83,21,5
32767,20120,5840,35,-9,-29,25166,4046,5252,-65,25,13
32767,20626,6150,-2,6,-39,25116,3958,5298,-37,27,11
32767,20420,6444,-70,-14,-27,24926,3998,5238,5,23,5
32767,20074,6368,-59,-51,-9,24972,4300,5088,33,2,3
32767,20022,6078,-3,-70,7,25108,4582,5124,35,3,1
32767,20318,5822,7,-56,12,25132,4634,5228,7,13,4
32767,20338,5892,-77,-7,-16,25060,4440,5304,1,27,24
32767,20014,6118,-104,15,-20,24966,4300,5276,12,30,25
32767,19868,6460,-69,7,-7,25124,4564,5256,34,31,11
32767,19916,6672,-28,-30,3,25082,4934,5262,13,41,9
32767,19916,6578,-16,-69,7,25060,4952,5210,-37,50,15
32767,19766,6350,-4,-98,12,24992,4542,5158,-78,46,17
32767,19766,6018,0,-109,-6,25008,4298,5266,-75,42,8
32767,19764,5958,15,-95,-17,24928,4424,5272,-59,34,3
32767,20214,6066,33,-68,-7,24862,4344,5366,-59,15,8
32767,20362,6016,5,-48,-5,24940,4236,5182,-49,-3,11
32767,20270,6044,-20,-36,3,25050,4242,5252,-30,-10,2
32767,20296,6016,-24,-34,5,25110,4276,5156,-15,-8,-1
32767,20260,6194,-34,-39,5,25176,4244,5214,-6,-2,9
32767,20274,6256,-51,-50,7,25090,4308,5210,6,5,17
32767,20120,6232,-62,-65,4,25068,4466,5314,20,9,19
32767,19914,6050,-35,-65,8,25016,4714,5206,19,14,19
32767,20028,5778,5,-38,17,25044,4800,5338,-7,23,18
32767,20224,5844,-14,-8,4,25032,4722,5350,-35,29,20
32767,20206,6218,-81,-7,-6,24956,4512,5304,-45,35,26
32767,19684,6448,-107,-23,-10,24826,4444,5270,-46,34,13
32767,19508,6430,-52,-55,-17,24798,4644,5230,-48,26,5
32767,20476,5778,-36,-11,-11,24922,4598,5230,-81,21,8
32767,20214,6142,-108,7,-25,25090,4258,5300,-87,25,13
32767,19978,6384,-110,-1,-26,25024,3990,5260,-72,35,13
32767,19842,6454,-66,-29,-13,24942,4030,5322,-20,39,9
32767,20002,6338,-15,-49,-11,24912,4332,5290,3,40,2
32767,20118,6120,-3,-52,-6,24918,4510,5308,9,32,8
32767,20134,6150,-15,-58,-8,25048,4438,5148,-4,34,21
32767,20042,6148,-30,-62,-18,25062,4422,5268,-2,50,19
32767,20124,6082,-41,-61,-24,24852,4510,5306,-5,59,11
32767,20030,6000,-47,-54,-11,24670,4590,5302,-9,49,16
32767,19856,5958,-28,-43,1,24724,4670,5312,-18,29,10
32767,19920,5962,-16,-30,-2,24912,4784,5244,-33,20,-3
32767,20028,6182,-37,-25,-11,24942,4710,5246,-65,19,-7
32767,19914,6326,-67,-38,-20,24992,4598,5330,-86,19,-6
32767,19786,6296,-55,-49,-21,25030,4314,5226,-95,22,-3
32767,19776,5976,6,-43,-11,24978,4120,5160,-80,29,1
32767,20068,5920,22,-24,-9,24952,4176,5196,-50,34,3
32767,20304,6214,-9,-21,-17,24948,4366,5130,-37,32,0
32767,20298,6404,-59,-33,-23,25016,4302,5184,-38,30,9
32767,20044,6382,-81,-53,-16,25080,4110,5302,-30,32,12
32767,19788,6024,-49,-56,-12,24984,4144,5294,2,35,10
32767,19924,5930,2,-46,-1,24856,4458,5252,19,27,7
32767,20116,5888,11,-25,3,24930,4634,5112,11,25,6
32767,20138,6348,-38,-25,-14,25066,4630,5344,-18,25,8
32767,20102,6324,-64,-39,-19,24992,4470,5258,-32,32,13
32767,19934,6278,-67,-60,-16,25024,4370,5310,-21,29,10
32767,19930,6098,-48,-67,-4,24980,4622,5178,-16,28,1
32767,19980,5982,-26,-54,4,24922,4740,5292,-41,26,4
32767,19998,5870,-21,-29,1,24958,4580,5252,-67,28,6
32767,19906,6088,-30,-15,0,24966,4310,5340,-79,28,5
32767,19872,6380,-44,-34,-12,25006,4222,5296,-66,34,1
32767,19826,6376,-49,-59,-23,24948,4244,5240,-49,37,7
32767,19844,6064,-28,-71,-16,24832,4348,5256,-37,30,9
32767,19996,5882,-6,-58,-13,24712,4482,5184,-38,25,9
32767,20168,5892,-7,-35,-14,24760,4364,5240,-49,15,9
32767,20210,6216,-26,-27,-7,24938,4358,5266,-48,10,4
32767,20206,6342,-47,-34,-3,25072,4234,5352,-47,14,2
32767,19988,6252,-70,-47,-4,25004,4122,5302,-25,27,12
32767,19812,5866,-47,-41,-14,24892,4196,5160,-2,29,13
32767,19884,5984,-25,-21,-6,24824,4446,5176,13,27,5
32767,19930,6130,-17,-5,-9,24836,4656,5208,-8,21,3
32767,19980,6478,-27,-27,-12,24894,4500,5312,-40,20,15
32767,19970,6532,-32,-53,-15,24928,4348,5282,-37,21,14
32767,19948,6304,-31,-76,-8,24992,4426,5294,-33,27,6
32767,19966,6032,-36,-83,-7,24938,4538,5268,-37,33,2
32767,19906,5862,-49,-68,-15,24876,4552,5216,-53,34,8
32767,19948,5992,-45,-36,-19,24824,4346,5270,-65,28,3
32767,19998,6074,-41,-14,-17,24908,4250,5306,-55,24,-3
32767,19986,6212,-33,-16,-15,24888,4186,5348,-45,24,-1
32767,20014,6318,-26,-36,-17,25042,4178,5294,-25,18,11
32767,20080,6324,-23,-56,-17,24976,4248,5234,-8,28,7
32767,20216,6216,-42,-74,-14,24916,4390,5144,-11,30,6
32767,20108,6082,-75,-73,-13,24914,4392,5184,-15,29,14
32767,19824,5786,-72,-59,-6,24968,4432,5234,-19,21,9
32767,19792,5850,-6,-22,9,25018,4458,5184,-16,22,6
32767,20024,5976,0,-1,4,24970,4562,5326,-24,27,4
32767,20152,6226,-69,-5,-17,24914,4630,5254,-39,35,2
32767,19786,6362,-117,-24,-23,24896,4554,5294,-64,31,4
32767,19512,6300,-87,-52,-21,24948,4390,5246,-76,31,6
32767,19574,5978,-6,-54,-7,24936,4350,5202,-74,35,3
32767,19886,5864,28,-31,4,24898,4386,5208,-77,33,0
32767,20210,5922,-16,3,-16,24882,4346,5150,-82,37,2
32767,19914,6416,-97,4,-38,24946,4150,5340,-86,42,4
32767,19654,6474,-33,-48,-6,24846,4034,5168,-66,51,9
32767,19822,6194,7,-76,-10,24776,4048,5240,-39,50,5
32767,19902,6034,-4,-72,-12,24688,4258,5256,-21,43,1
32767,19906,6060,-38,-64,-30,24840,4408,5198,-34,33,4
32767,19822,6118,-17,-47,-21,24954,4344,5196,-46,31,1
32767,19956,5936,22,-31,-4,24904,4134,5384,-53,37,5
32767,20106,6168,9,-28,-3,24682,4016,5236,-31,36,11
32767,20032,6494,-43,-37,-9,24694,4266,5202,-9,21,5
32767,19720,6542,-63,-62,-14,24894,4412,5308,-15,7,-6
32767,19458,6310,4,-89,-2,25022,4414,5136,-23,12,2
32767,19702,6118,91,-102,13,24978,4232,5330,-38,17,4
32767,20096,5916,66,-94,10,24806,4268,5166,-22,23,3
32767,20054,5912,-3,-87,-9,24822,4340,5186,-24,8,4
32767,19912,5950,-33,-84,-21,24960,4358,5272,-36,6,1
32767,19970,5820,-14,-72,-9,24864,4286,5262,-44,10,7
32767,20086,5614,7,-41,4,24588,4060,5270,-35,-2,13
32767,20278,5688,-13,1,1,24600,4058,5186,-7,-29,6
32767,20308,6008,-62,33,-7,24852,4256,5146,4,-47,-6
32767,20356,6614,-100,19,-11,25116,4228,5196,9,-40,4
32767,20070,6706,-124,-40,-9,25170,4016,5270,11,-11,18
32767,19640,6398,-57,-84,16,25024,4032,5204,41,9,21
32767,19562,6040,35,-87,28,25040,4306,5260,63,24,21
32767,19882,5960,77,-72,20,24986,4674,5160,62,35,23
32767,20130,6188,22,-52,5,25074,4834,5228,19,39,21
32767,20016,6300,-45,-56,-16,25116,4730,5288,-20,44,27
32767,19906,6202,-64,-62,-18,25050,4548,5388,-41,50,25
32767,19814,5936,-25,-57,5,24742,4444,5328,-42,49,20
32767,19864,6034,-16,-38,8,24706,4642,5298,-43,11,7
32767,19850,6296,-42,-44,-8,24864,4712,5248,-67,-2,-8
32767,19690,6382,-37,-62,-17,25160,4494,5252,-108,-12,-9
32767,19840,6226,-13,-81,-21,25234,4004,5286,-114,5,5
32767,20058,6000,7,-80,-19,24990,3730,5218,-82,28,10
32767,20142,5788,1,-57,-9,24756,3854,5180,-31,30,8
32767,20112,5838,-9,-28,-6,24690,4258,5194,-2,20,10
32767,20142,6286,-12,-36,-6,24802,4470,5146,-7,9,12
32767,20252,6424,-45,-64,-6,24878,4362,5250,-26,10,10
32767,20098,6134,-67,-84,-8,24844,4060,5216,-15,6,14
32767,19826,5762,-45,-69,1,24894,4140,5284,8,5,7
32767,19832,5684,1,-31,10,24900,4420,5234,20,9,6
32767,20156,5976,8,0,5,24892,4610,5136,9,9,9
32767,20178,6384,-52,-8,-8,25012,4554,5202,-13,7,10
32767,19972,6596,-84,-35,-13,25110,4438,5332,-39,8,7
32767,19666,6302,-51,-75,-5,25142,4222,5300,-36,22,16
32767,19776,5914,13,-69,2,25006,4210,5254,-24,28,16
32767,20042,5786,13,-38,-2,24848,4556,5122,-10,25,6
32767,20010,6176,-23,-20,-17,24938,4674,5226,-38,21,6
32767,20006,6386,-43,-28,-23,25100,4432,5234,-63,25,13
32767,19954,6398,-47,-53,-16,25082,4098,5450,-71,31,10
32767,19960,6230,-16,-72,-8,24950,4042,5252,-39,38,12
32767,19980,5926,4,-65,-3,24816,4192,5248,-15,30,10
32767,20136,5848,-15,-28,-9,24802,4460,5156,-5,22,4
32767,20100,6246,-52,-23,-24,24910,4528,5182,-24,12,5
32767,20020,6482,-57,-42,-20,24992,4250,5292,-43,10,6
32767,20040,6426,-29,-71,0,25050,4084,5286,-28,19,9
32767,20050,5998,-26,-76,7,24946,4188,5328,-4,24,14
32767,19818,5722,-30,-49,2,24976,4436,5260,4,23,5
32767,19754,5808,-22,-7,-12,24876,4714,5206,-14,24,3
32767,19934,6206,-15,-3,-21,24998,4656,5130,-50,19,5
32767,20082,6568,-31,-27,-18,25064,4300,5286,-72,22,5
32767,20048,6380,-38,-59,-15,24988,4066,5282,-52,28,9
32767,20006,6024,-20,-68,-4,24898,4174,5278,-15,23,10
32767,19944,5800,-4,-49,4,24906,4510,5204,-8,16,5
32767,19946,5880,-18,-26,-10,24968,4560,5220,-30,12,3
32767,20100,6228,-50,-11,-26,25046,4462,5204,-53,18,6
32767,19854,6340,-76,-24,-35,25070,4178,5358,-64,25,2
32767,19932,6162,33,-60,1,24960,4044,5330,-29,35,10
32767,20200,6094,50,-58,11,24822,4210,5294,-9,28,8
32767,20376,6252,-11,-60,0,24810,4454,5244,1,19,6
32767,20324,6086,-97,-63,-16,25054,4576,5178,-20,6,11
32767,19850,6112,-122,-50,-11,25114,4448,5258,-52,21,3
32767,19570,5934,-29,-26,7,24978,4226,5252,-48,29,5
32767,19932,6042,29,-12,9,24870,4050,5328,-34,28,14
32767,20318,6380,-12,-19,-7,24898,4280,5216,3,22,1
32767,20192,6586,-77,-40,-18,25016,4492,5354,-4,14,-4
32767,19840,6386,-89,-76,-14,25118,4478,5200,-21,20,13
32767,19694,6132,-21,-99,7,25160,4304,5252,-44,32,21
32767,19896,5742,31,-81,12,25034,4192,5276,-32,41,15
32767,20186,5730,10,-46,5,24852,4360,5264,-16,37,16
32767,20102,6160,-68,-13,-5,24872,4618,5186,-19,28,9
32767,19756,6384,-80,-19,-4,24956,4672,5200,-53,29,3
32767,19668,6336,-32,-41,3,24916,4336,5402,-81,26,13
32767,19880,6160,-4,-56,6,24858,4104,5242,-66,26,12
32767,19954,6188,-32,-58,-5,24862,4116,5238,-41,19,4
32767,19758,6162,-39,-52,-24,24958,4410,5226,-30,19,-3
32767,19766,6132,6,-52,-16,24888,4520,5130,-51,25,7
32767,20180,6198,35,-53,-1,24928,4196,5242,-76,21,11
32767,20400,6114,-25,-44,-10,24946,3948,5210,-56,22,10
32767,20126,6084,-66,-33,-6,24926,4018,5240,-28,28,14
32767,19880,6202,-57,-31,1,24834,4202,5242,-6,27,15
32767,19838,6310,-23,-48,4,24860,4346,5244,-1,20,11
32767,20014,6250,-14,-61,0,24970,4246,5256,-1,14,10
32767,20018,6068,-22,-65,-4,25014,4178,5238,5,19,12
32767,19970,5936,-21,-53,2,24994,4294,5290,14,15,11
32767,19972,6034,-15,-39,3,24956,4518,5274,6,16,8
32767,20112,6178,-7,-35,-5,24976,4516,5212,-18,21,16
32767,20208,6236,-27,-49,2,24970,4516,5210,-37,25,11
32767,19904,6196,-44,-52,7,25002,4360,5260,-51,18,7
32767,19638,6034,-7,-53,6,25076,4302,5282,-56,22,8
32767,19802,6138,57,-57,13,24982,4186,5182,-43,24,13
32767,20398,6224,39,-62,-1,24940,4160,5178,-26,22,10
32767,20196,6034,-56,-62,-13,25010,4396,5176,-21,24,5
32767,19354,5770,-25,-32,-7,24934,4378,5174,-39,26,14
32767,19534,5804,71,-18,-1,24870,4236,5270,-47,25,18
32767,20326,5958,91,0,-9,24848,4166,5282,-32,19,14
32767,20862,5868,-36,15,-49,24988,4164,5160,-11,14,14
32767,20390,6044,-141,50,-43,24980,4304,5106,3,18,12
32767,20080,6110,-144,84,-11,24980,4500,5348,-12,18,5
32767,19838,6320,-98,80,-22,25026,4340,5220,-23,28,15
32767,20026,6712,-49,42,-5,24978,4122,5270,-29,35,17
32767,19822,6808,-32,-35,-5,25166,4262,5170,1,49,-3
32767,20076,6514,-8,-84,-22,25274,4284,5426,-25,68,4
32767,20186,6038,-11,-103,-3,25182,4388,5220,-7,98,16
32767,19990,5656,-23,-78,-7,24924,4234,5352,-44,117,15
32767,19962,5700,-21,-30,-18,24764,4198,5240,1,114,34
32767,19948,6112,-19,-5,-14,24444,4484,5112,-11,100,27
32767,19988,6466,-45,-29,-10,24458,4642,5338,-14,63,17
32767,19850,6548,-58,-73,-15,24496,4596,5364,-33,47,11
32767,19562,5944,-13,-98,-5,24666,4300,5436,-32,28,17
32767,19838,5760,21,-86,-14,24784,4322,5270,-18,31,5
32767,20158,5878,-4,-59,-36,24514,4560,5218,-30,34,0
32767,20208,5898,-28,-31,-39,24350,4572,5162,-48,28,-6
32767,20156,6042,-19,-12,-23,24518,4350,5194,-84,11,-5
32767,20338,6084,-8,-7,-18,24714,3896,5156,-79,4,8
32767,20322,6394,-51,-11,-22,24924,3594,5236,-31,-3,11
32767,20164,6426,-81,-33,-26,24842,3866,5240,30,7,2
32767,19936,6282,-8,-79,8,24750,4384,5198,56,1,2
32767,20162,6192,35,-97,21,24988,4644,5262,33,1,5
32767,20378,5982,-19,-87,8,25056,4540,5136,11,13,6
32767,19998,5788,-96,-60,-3,25030,4390,5244,14,26,14
32767,19480,5944,-44,-23,1,25044,4588,5240,21,24,4
32767,19838,6300,11,-30,-3,25122,4898,5298,-5,26,-4
32767,20110,6284,-23,-41,-14,25054,4776,5264,-51,21,10
32767,19870,6102,-54,-56,-20,24932,4540,5286,-73,24,15
32767,19712,6026,-25,-56,-15,24750,4468,5296,-71,23,2
32767,19782,6110,31,-57,-2,24792,4632,5314,-102,16,-8
32767,20176,6152,44,-56,-11,24774,4302,5156,-128,23,9
32767,20428,6120,-25,-52,-30,24764,3890,5160,-109,18,16
32767,20128,6066,-74,-52,-38,24808,3844,5240,-59,22,1
32767,20122,6046,-14,-54,2,24796,4102,5334,-30,26,-1
32767,20320,5972,12,-50,26,24658,4170,5328,-24,34,15
32767,20510,5960,-41,-37,6,24506,4060,5248,-11,28,22
32767,20226,5880,-112,-13,-8,24608,4034,5280,22,8,11
32767,19906,5972,-110,8,-2,24856,4498,5132,49,8,3
32767,19982,6200,-65,5,6,24850,4700,5354,14,14,3
32767,20018,6470,-36,-20,14,24740,4606,5272,-10,22,11
32767,19836,6284,-47,-48,19,24752,4370,5168,-18,12,13
32767,19724,6014,-49,-49,2,25098,4320,5270,-2,7,9
32767,19910,5852,-23,-36,-4,25350,4580,5296,3,24,10
32767,19828,6186,-35,-31,23,25186,4860,5328,-36,57,13
32767,19790,6430,-39,-40,-2,24740,4752,5332,-83,70,18
32767,19614,6428,-42,-54,-8,24582,4398,5186,-106,52,15
32767,19594,6250,-4,-68,17,24784,4334,5214,-96,45,4
32767,19872,6060,16,-73,4,24774,4368,5286,-97,49,4
32767,20056,5946,-25,-54,-25,24662,4360,5314,-100,55,8
32767,20080,6134,-25,-35,-16,24504,4164,5206,-112,43,3
32767,20106,6154,-3,-36,-10,24440,4100,5160,-103,32,3
32767,20316,6248,24,-44,-2,24646,3832,5150,-90,11,10
32767,20382,6374,5,-57,12,24834,3830,5318,-44,9,5
32767,20314,6262,-15,-77,4,24876,3826,5302,-16,13,4
32767,20300,6144,-26,-90,14,24872,3876,5242,27,2,25
32767,20224,5924,-34,-86,30,24946,4126,5260,52,7,18
32767,20074,5806,-66,-48,16,24990,4432,5190,59,12,10
32767,19860,5832,-82,-28,15,24964,4486,5208,43,17,21
32767,19888,6020,-60,-1,-3,24826,4648,5218,31,21,19
32767,20086,6154,-43,-6,22,24776,4768,5308,-5,13,5
32767,19854,6120,-62,-11,16,24840,4776,5266,-33,14,7
32767,19632,6290,-75,-24,20,24864,4626,5304,-78,11,9
32767,19540,6178,-85,-44,-41,24920,4284,5324,-93,8,10
32767,19518,6086,-31,-52,-4,25070,4336,5166,-82,1,9
32767,19700,5812,0,-33,-29,24986,4452,5204,-99,30,7
32767,19974,5804,15,-1,-36,24896,4452,5196,-109,32,12
32767,20148,6114,-1,28,-21,24916,4332,5250,-133,42,7
32767,20222,6312,-56,10,-30,24892,4150,5186,-131,41,12
32767,20094,6436,-97,-22,-39,24636,3902,5398,-119,66,44
32767,19884,6206,-85,-47,-25,25166,3340,5038,-45,12,74
32767,19952,5930,-32,-45,-4,24782,4050,5368,-1,79,-35
32767,20044,5700,-32,-8,-8,24834,4022,5356,21,31,17
32767,19966,5976,-75,16,-24,24910,4190,5028,20,48,-7
32767,19826,6060,-116,21,-46,24654,4308,5350,7,60,-26
32767,19632,6120,-119,24,-47,24626,4228,5234,21,50,28
32767,19650,6090,-79,16,-48,24724,3874,5160,28,43,48
32767,19678,6048,-33,21,-32,24792,4048,5282,37,49,3
32767,19892,6136,-7,27,-26,24590,4436,5270,46,58,-8
32767,20040,6300,-24,22,-38,24364,4474,5302,36,47,-10
32767,20144,6420,-71,0,-42,24534,4602,5232,24,37,-36
32767,20118,6324,-86,-27,-36,24928,4782,5184,-16,39,-36
32767,20092,5990,-60,-32,-18,25108,4608,5332,-72,66,-7
32767,20062,5868,-42,-17,11,24958,4150,5276,-94,93,33
32767,19922,6044,-50,-17,17,24762,3700,5218,-58,95,19
32767,19706,6196,-71,-17,12,24732,3772,5148,-6,88,-24
32767,19594,6190,-98,-17,-12,24700,4358,5056,25,87,-39
32767,19406,6040,-98,-22,-23,24474,4688,5302,-4,91,-8
32767,19558,6102,-21,-8,-10,24308,4538,5342,-29,79,12
32767,19780,6454,-17,-58,-4,24338,4336,5338,-42,63,3
32767,19616,6326,-3,-84,4,24452,4386,5358,-44,42,-19
32767,19682,6090,30,-99,11,24542,4430,5298,-43,39,-27
32767,19708,6028,58,-103,12,24564,4484,5180,-48,46,-22
32767,19816,5950,82,-84,17,24518,4540,5240,-73,57,-14
32767,19646,6198,126,-72,35,24620,4564,5302,-117,57,-5
32767,19322,6246,218,-103,55,24620,4172,5224,-148,55,7
32767,18654,6336,492,-162,112,24528,3754,5182,-113,58,7
32767,20224,5994,696,-180,166,24580,3718,5250,-61,53,-18
32767,19774,5812,711,-161,161,24506,4032,5296,-28,52,-32
32767,20106,5682,825,-122,169,24334,4192,5214,-13,41,-19
32767,21018,5990,816,-126,183,24422,4216,5166,-21,27,-22
32767,21894,6092,594,-123,88,24504,4352,5210,-19,20,-23
32767,21376,6068,391,-125,57,24446,4426,5174,-32,20,-16
32767,19990,5994,457,-118,66,24424,4454,5174,-48,20,-6
32767,19400,6032,826,-123,141,24426,4252,5232,-71,14,-16
32767,20090,6136,1281,-156,222,24556,3884,5028,-39,10,-25
32767,22832,6054,1463,-215,238,24508,3708,5418,-15,10,-28
32767,24708,5806,1163,-231,189,24606,4048,5006,41,24,-24
32767,24278,5532,708,-214,112,24472,3998,5346,25,27,-21
32767,22984,5336,507,-196,68,24486,4046,4944,46,30,-36
32767,22284,5434,629,-187,118,24630,4138,5236,56,8,-50
32767,21836,5462,927,-176,171,24504,4326,5276,33,31,-29
32767,23908,5260,1136,-201,200,24266,4252,5220,34,33,28
32767,25492,5056,928,-177,152,24354,3780,5308,54,4,23
32767,25294,5260,583,-156,93,24578,3832,5010,135,0,-25
32767,24314,5282,411,-150,71,24506,4138,5116,173,3,-41
32767,23304,5370,530,-139,104,24570,4716,5324,160,-9,-23
32767,23708,5118,901,-141,148,24582,5014,5300,107,-10,-5
32767,25440,5036,962,-155,139,24680,4744,5270,38,-13,-3
32767,26088,5160,773,-156,139,24758,4374,5240,76,-6,-14
32767,25420,5092,624,-172,118,24790,4316,5170,105,15,1
32767,24864,4916,667,-184,116,24638,4432,5164,118,24,9
32767,24710,4870,818,-186,132,24802,4888,5306,110,16,-10
32767,25126,4664,1008,-195,172,24680,5190,5410,55,29,-17
32767,25730,4660,1117,-191,181,24528,4846,5260,10,29,14
32767,26746,4388,1154,-223,174,24628,4360,5326,16,17,20
32767,26384,4292,1148,-225,192,24680,4334,5236,52,28,-3
32767,26114,4026,1352,-230,256,24538,4852,5074,97,30,-2
32767,27158,3572,1558,-248,278,24624,4920,5334,67,16,-3
32767,29490,3370,1500,-269,244,24618,4862,5214,60,21,3
32767,30558,3206,1028,-261,200,24546,4594,5318,42,23,2
32767,28490,3138,674,-234,210,24530,4690,5326,85,20,-2
32767,26844,3076,904,-217,295,24678,4720,5228,116,21,-8
32767,27198,2944,1420,-221,346,24674,4830,5184,124,32,-24
32767,28388,2480,1771,-220,418,24548,4892,5254,140,40,-1
32767,29190,2234,1882,-211,448,24478,4998,5262,110,25,-4
32767,29406,2204,1899,-200,448,24426,4986,5396,131,23,-28
32767,29344,1698,2053,-214,494,24336,5078,5370,149,33,-29
32767,29428,1350,2333,-269,537,24330,5386,5116,153,20,-14
32767,31510,284,2481,-314,520,24454,5546,5368,91,-1,-6
32767,32767,-974,1940,-245,419,24598,5292,5396,65,0,8
32767,32478,-1186,1506,-183,402,24768,5008,5390,65,13,19
32767,30462,-1158,1566,-106,439,24618,5084,5342,111,24,8
32767,31142,-1886,1877,-71,417,24610,5226,5476,162,27,-3
32767,32767,-2250,1800,-36,289,24528,5418,5302,150,26,-6
32767,32767,-2090,1468,90,186,24482,5210,5424,142,12,-1
32767,32767,-1814,1429,85,283,24530,5100,5402,139,7,-6
32767,32580,-1980,1638,5,377,24270,5024,5428,190,-3,-35
32767,32767,-2890,1832,-92,409,24492,5354,5206,247,-22,-15
32767,32767,-3476,1723,-117,473,24830,5828,5128,238,-33,-30
32767,32767,-4122,1535,-127,504,24920,5844,5090,153,-22,-43
32767,32767,-4256,1562,-170,507,24668,5226,5330,173,25,17
32767,32767,-5126,1576,-191,482,24536,5594,4988,260,45,27
32767,32767,-5898,1619,-123,463,24322,6288,5222,303,43,51
32767,32336,-6396,1878,-44,451,24478,7420,5486,181,31,66
32767,32767,-7170,2212,-6,382,24804,6154,5542,34,-10,11
32767,32767,-8086,2074,-22,226,24702,5440,5384,16,16,-40
32767,32767,-8610,1234,-68,80,24920,5536,5204,114,13,-20
32767,32767,-8652,556,-33,144,24844,5900,5374,166,14,-25
32767,32767,-8446,570,51,300,24564,6296,5212,166,14,-14
32767,32767,-8592,756,57,305,24656,6052,5258,115,-16,-24
32767,32767,-8514,1000,86,191,24598,6074,5282,128,-3,-61
32767,32767,-8372,1113,97,206,24678,6062,5152,158,-14,-43
32767,32767,-8428,1547,148,325,24866,5892,5390,148,-21,-22
32767,32767,-9034,1899,141,418,24802,5944,5130,135,-25,-83
32767,32767,-9670,1798,40,428,24402,6052,5318,198,-30,-90
32767,32767,-10388,1338,-79,370,24294,6368,4898,332,-37,-46
32767,32767,-10630,1109,-166,348,24870,7412,4790,420,-50,-12
32767,32767,-11336,1408,-128,374,25190,7826,5558,156,3,-35
32767,32767,-12030,1413,-120,296,24810,7238,5326,26,25,0
32767,32767,-12584,1100,-121,182,24592,6660,5186,24,33,-2
32767,32767,-12560,750,-142,131,24728,6678,5142,77,24,-11
32767,32767,-12564,669,-170,123,24852,6710,5274,57,34,-28
32767,32767,-12514,860,-168,117,25004,6346,5646,-1,40,-61
32767,32767,-12840,1107,-150,108,24736,6098,5298,-4,43,-123
32767,32767,-13468,928,-129,26,24366,6040,4916,168,6,-121
32767,32767,-13888,228,-136,-132,24360,6524,5214,315,-31,-75
32767,32767,-13864,-18,-123,-96,24922,6704,5106,373,-29,-46
32767,32767,-14012,-71,-104,-33,24948,7556,5302,313,-1,-114
32767,32767,-14006,-71,-87,-55,24618,7608,5070,277,-3,-114
32767,32767,-13960,-148,-85,-80,24538,7458,4880,266,0,-86
32767,32767,-13776,-289,-56,-82,24860,7310,4932,256,0,-57
32767,32767,-13436,-198,4,-60,24990,7852,5194,271,7,-32
32767,32767,-13078,59,39,-45,24918,7884,5288,208,24,-33
32767,32767,-12444,369,2,6,24838,7774,4922,125,45,-89
32767,32767,-12624,478,-45,50,24716,7666,4902,185,38,-49
32767,32767,-13192,235,-142,30,24806,7516,4786,230,38,6
32767,32767,-13876,-180,-191,-22,24990,8344,4940,286,37,45
32767,32767,-14264,-385,-189,-43,24904,9236,5200,217,40,51
32767,32767,-14606,-345,-124,-46,24878,8930,5202,53,36,20
32767,32767,-14444,-262,-30,-85,24658,8630,4998,-9,39,-8
32767,32767,-13862,-109,32,-79,24682,8146,4970,-56,32,11
32767,32767,-12854,10,69,-35,24792,7558,5328,-117,43,-9
32767,32767,-12644,-70,21,-43,24686,7502,5110,-109,51,10
32767,32767,-12740,-192,-39,-65,24738,7184,5228,-88,43,-20
32767,32767,-12920,-229,-87,-44,24676,7188,5150,-39,48,-38
32767,32767,-12908,-57,-103,-1,24540,7562,4970,27,44,-20
32767,32767,-13166,55,-112,13,24582,7920,5008,64,38,10
32767,32767,-13390,67,-104,28,24560,8226,5112,53,36,30
32767,32767,-13488,31,-90,39,24342,8546,5046,50,27,44
32767,32767,-13430,-37,-72,0,24444,8448,5130,-15,12,28
32767,32767,-13146,-62,-94,12,24634,8022,5258,-66,18,8
32767,32767,-13270,-57,-97,27,24656,8048,5208,-87,20,20
32767,32767,-13502,-105,-100,0,24634,7468,5136,-99,17,8
32767,32767,-13758,-174,-72,-35,24702,7346,5076,-59,20,19
32767,32767,-13850,-187,-27,-59,24842,7584,5046,-28,19,22
32767,32767,-13378,-16,12,-38,24950,7864,5244,-18,25,7
32767,32767,-12774,95,-8,22,24782,7794,5198,-25,24,1
32767,32767,-12810,-37,-38,18,24792,7704,5098,-16,20,-17
32767,32767,-13150,-211,-72,-12,24734,7848,5154,-8,20,-8
32767,32767,-13452,-243,-49,-34,24734,7932,5092,-6,12,-4
32767,32767,-13394,-62,-14,-19,24818,8126,5068,2,18,4
32767,32767,-13008,-69,-35,-51,24744,8190,5094,-28,22,7
32767,32767,-13060,-238,-67,-58,24710,7744,5088,-70,20,-2
32767,32767,-13110,-340,-73,-63,24550,7770,5024,-41,19,7
32767,32767,-12996,-222,-66,-10,24658,7818,5170,-33,17,10
32767,32767,-12774,102,-25,47,24618,7928,5206,-33,29,12
32767,32767,-12812,281,-6,35,24388,7954,5224,-34,24,32
32767,32767,-13022,165,-44,-13,24546,7786,5192,-68,14,7
32767,32767,-13230,-230,-95,-68,24630,7340,4938,-49,9,18
32767,32767,-13358,-339,-107,-63,24702,7474,5132,-2,9,27
32767,32767,-13328,-193,-69,-17,24854,7888,5142,32,18,25
32767,32767,-13150,54,-18,30,24836,8236,5102,23,28,25
32767,32767,-13008,184,4,20,24624,8278,5160,-23,34,22
32767,32767,-12790,45,-23,-32,24714,8032,5052,-56,31,11
32767,32767,-12880,-189,-72,-55,24772,7796,5148,-54,25,17
32767,32767,-12948,-292,-101,-39,24862,7668,5066,-38,24,20
32767,32767,-12974,-112,-67,3,24988,7638,5278,-22,32,24
32767,32767,-13032,88,-37,27,24736,7748,5216,-36,40,21
32767,32767,-12998,191,-27,20,24660,7636,5120,-33,30,14
32767,32767,-12864,94,-49,-5,24746,7686,4940,27,18,0
32767,32767,-12916,-110,-80,-22,24832,8204,5012,48,17,13
32767,32767,-13042,-196,-98,-16,24862,8468,5092,10,21,17
32767,32767,-13266,-159,-77,-7,24702,8068,5126,-51,26,10
32767,32767,-13304,-60,-43,-2,24628,7798,5164,-79,29,-9
32767,32767,-13178,51,1,-5,24540,7700,5102,-68,28,-10
32767,32767,-13062,-8,5,-29,24486,7664,5030,-30,23,4
32767,32767,-12922,-139,-20,-55,24558,7888,5098,-1,19,14
32767,32767,-12810,-247,-45,-56,24678,7804,5096,-11,16,23
32767,32767,-12732,-191,-49,-23,24764,7718,5246,-30,21,-3
32767,32767,-12634,-41,-36,6,24674,7624,5116,-17,23,2
32767,32767,-12664,106,-40,33,24538,7734,5152,19,22,-3
32767,32767,-12720,118,-57,42,24608,8090,5110,43,18,1
32767,32767,-12922,-70,-78,-6,24748,8120,5054,22,17,15
32767,32767,-13254,-170,-73,-35,24770,8076,5122,-1,18,14
32767,32767,-13206,-86,-34,-20,24632,8046,5080,-29,14,17
32767,32767,-12984,40,-1,-11,24676,7724,5164,-32,11,13
32767,32767,-12810,122,-2,5,24592,7930,5012,-12,12,24
32767,32767,-12748,48,-33,10,24690,8064,5018,-18,11,22
32767,32767,-12798,-131,-70,-13,24612,8254,5058,-18,14,31
32767,32767,-12942,-238,-73,-34,24834,8000,5200,-44,11,25
32767,32767,-12932,-119,-24,-28,24866,7832,5112,-59,15,17
32767,32767,-12866,68,1,3,24784,7802,5170,-56,14,12
32767,32767,-12620,159,-8,41,24716,7796,5192,-46,14,8
32767,32767,-12582,60,-43,36,24678,7824,5082,-39,9,2
32767,32767,-12668,-87,-80,-1,24738,7816,5066,-25,11,1
32767,32767,-12926,-146,-92,-12,24794,7768,5044,-1,12,9
32767,32767,-12992,-65,-81,10,24744,7956,5240,4,20,6
32767,32767,-13018,82,-46,37,24600,8116,5112,-3,25,22
32767,32767,-13048,94,-24,33,24582,8258,5164,-22,19,17
32767,32767,-12940,-1,-29,-2,24694,8048,5074,-45,12,10
32767,32767,-12840,-137,-54,-36,24694,7826,5000,-45,11,8
32767,32767,-12902,-185,-74,-35,24676,7772,5148,-25,16,19
32767,32767,-12838,-103,-71,-16,24680,7798,5118,-15,11,23
32767,32767,-12898,12,-51,-5,24732,7790,5228,2,8,22
32767,32767,-12964,97,-36,6,24730,8238,5130,5,9,20
32767,32767,-12920,31,-35,2,24796,7976,5092,-22,4,4
32767,32767,-12972,-69,-59,-12,24764,7768,4950,-5,6,10
32767,32767,-12956,-153,-72,-28,24776,7886,5110,-1,7,-1
32767,32767,-12994,-92,-58,-15,24696,7978,5148,-10,12,16
32767,32767,-12862,51,-28,20,24818,8030,5178,-16,10,11
32767,32767,-12814,116,-8,19,24820,7998,5066,-11,11,6
32767,32767,-12758,56,-33,-3,24736,8020,5062,0,14,15
32767,32767,-12770,-51,-71,-24,24730,8190,5010,2,15,13
32767,32767,-12982,-117,-93,-13,24860,8106,5072,-25,19,7
32767,32767,-13190,-5,-64,7,24868,7990,5148,-43,30,7
32767,32767,-13244,71,-36,20,24772,7734,5144,-42,29,4
32767,32767,-13064,62,-12,7,24680,7680,4998,-8,21,4
32767,32767,-12894,-15,-19,-14,24724,7926,5008,35,19,9
32767,32767,-12684,-115,-61,-26,24786,8372,5094,42,19,0
32767,32767,-12624,-141,-92,-7,24750,8326,5000,-8,17,14
32767,32767,-12840,-67,-89,26,24804,7954,5100,-29,24,12
32767,32767,-12984,36,-89,39,24642,7702,5214,-17,25,22
32767,32767,-13096,69,-65,31,24858,7934,5100,14,16,-6
32767,32767,-12970,7,-55,11,24776,8170,5116,29,19,18
32767,32767,-12904,-101,-72,-19,24826,8278,5052,27,24,19
32767,32767,-12898,-157,-66,-31,24872,8298,4992,-11,26,4
32767,32767,-13044,-81,-43,-28,24814,8142,5062,-42,31,11
32767,32767,-12988,37,-22,-8,24708,8014,5084,-45,24,13
32767,32767,-12858,99,-20,18,24776,8084,5022,-25,19,-1
32767,32767,-12716,27,-31,8,24840,8192,5082,-26,15,-2
32767,32767,-12738,-87,-46,-12,24700,8076,5074,-27,20,5
32767,32767,-12900,-127,-47,-27,24694,8102,5024,-22,19,15
32767,32767,-12896,-79,-44,-36,24850,8090,5052,-33,21,14
32767,32767,-12842,30,-43,-9,24810,8084,5148,-53,26,16
32767,32767,-12782,22,-58,2,24744,8020,5152,-49,23,17
32767,32767,-12734,-24,-61,0,24798,8104,5014,-32,18,0
32767,32767,-12864,-26,-57,-16,24744,7966,5094,-15,17,-2
32767,32767,-12946,4,-53,-17,24694,8174,5020,1,21,10
32767,32767,-13034,23,-68,6,24778,8194,4998,-32,24,13
32767,32767,-12968,-38,-72,11,24798,8114,5162,-49,26,18
32767,32767,-12962,-97,-68,5,24828,8126,5130,-54,27,12
32767,32767,-12928,-79,-40,10,24772,8100,5072,-36,22,5
32767,32767,-12936,-32,-12,-16,24752,7974,5018,-34,18,-4
32767,32767,-12882,26,-6,-39,24762,7922,4962,-26,20,2
32767,32767,-12576,29,-36,-21,24712,8034,5050,-15,24,19
32767,32767,-12526,-42,-73,-8,24824,8248,5050,-14,29,21
32767,32767,-12608,-119,-94,-3,24842,8180,5098,-41,34,12
32767,32767,-12794,-96,-87,8,24772,7988,5042,-47,35,1
32767,32767,-12928,-1,-49,3,24704,7846,4994,-43,32,-5
32767,32767,-13152,111,-34,-15,24638,7882,5006,-30,29,7
32767,32767,-13064,111,-58,3,24620,8180,5108,-16,24,14
32767,32767,-12954,-5,-73,8,24706,8504,5156,-19,22,17
32767,32767,-13104,-151,-79,-11,24796,8198,5128,-61,20,14
32767,32767,-13160,-188,-52,-31,24702,7814,5108,-64,16,9
32767,32767,-13154,-80,-9,-42,24664,7764,5136,-23,13,15
32767,32767,-12924,64,15,-44,24856,7918,5080,-2,16,4
32767,32767,-12726,108,-14,-16,24856,8156,5058,19,22,19
32767,32767,-12590,-43,-53,5,24752,8224,5124,29,25,35
32767,32767,-12712,-176,-87,-1,25000,8110,5076,8,18,1
32767,32767,-12854,-163,-70,-13,24866,7642,5172,4,23,-4
32767,32767,-12952,34,-46,-1,24752,7460,5050,53,19,8
32767,32767,-13008,185,-34,12,24778,7994,4994,114,16,0
32767,32767,-13048,119,-49,7,24862,8632,5084,122,20,14
32767,32767,-12964,-104,-71,-9,24826,9020,5060,44,26,8
32767,32767,-13004,-249,-62,-20,24816,8554,5056,-32,23,-11
32767,32767,-12946,-126,-21,-30,24724,8044,4938,-50,25,-5
32767,32767,-12900,67,15,-23,24672,7966,5030,-24,26,7
32767,32767,-12876,200,24,-15,24712,8252,5064,-7,29,12
32767,32767,-12646,114,-22,-35,24692,8502,5136,-15,30,14
32767,32767,-12762,-35,-66,-28,24730,8616,5134,-45,30,12
32767,32767,-12764,-93,-89,-8,24722,8164,5000,-86,24,2
32767,32767,-12900,-12,-81,3,24746,7778,5014,-49,20,10
32767,32767,-13036,123,-69,16,24868,7868,5042,-20,23,6
32767,32767,-13102,90,-70,16,24736,8200,5046,5,29,15
32767,32767,-13128,-146,-83,-6,24692,8562,5114,-2,26,9
32767,32767,-13230,-224,-81,-22,24660,8586,5022,-29,23,3
32767,32767,-13242,-241,-67,-34,24772,8272,5040,-51,24,7
32767,32767,-13048,-398,-66,-66,24770,7932,5074,-53,22,10
32767,32767,-12770,-509,-59,-86,24748,7838,5116,-15,21,10
32767,32767,-12406,-582,-75,-96,24846,8206,5150,12,28,15
32767,32767,-12268,-825,-157,-115,24752,8474,5006,15,28,18
32767,32767,-12330,-1293,-242,-130,24838,8378,5062,14,26,8
32767,32767,-12112,-1940,-315,-139,24942,8280,5030,-2,29,3
32767,32767,-11518,-2036,-312,-51,24812,8176,5070,-16,37,3
32767,31934,-9986,-973,-221,147,24732,8198,5132,-15,34,-5
32767,32767,-10154,-481,-242,177,24694,8224,5062,0,30,-7
32767,32767,-10152,-777,-246,65,24678,8338,5000,8,29,8
32767,32767,-10916,-1851,-302,-103,24700,8640,5014,-1,33,4
32767,32767,-10962,-3129,-341,-316,24660,8622,5024,-37,26,19
32767,32767,-10422,-3715,-249,-432,24652,8440,5028,-57,31,12
32767,31886,-8802,-3413,-51,-375,24632,8358,4974,-48,25,31
32767,30670,-7442,-2590,69,-263,24762,8280,5012,-42,26,44
32767,32624,-5926,-1487,143,-240,24712,8322,5050,-48,32,52
32767,32767,-5488,-1250,124,-246,24648,8428,4804,-32,35,85
32767,32767,-5198,-1685,96,-270,24702,8770,4754,-22,49,126
32767,32767,-4868,-2416,50,-319,24706,8824,4754,-34,40,173
32767,32767,-3962,-2654,-9,-316,24908,8402,5520,-116,23,140
32767,31108,-2866,-2236,-60,-247,24920,7676,5340,-208,28,79
32767,30986,-2410,-1592,-91,-185,24572,7708,5110,-143,31,74
32767,32726,-2506,-1140,-101,-155,24500,7882,4666,-87,9,74
32767,32767,-2816,-1261,-109,-154,24782,8216,4548,-17,-11,76
32767,32767,-2524,-1478,-79,-146,25046,8546,4308,15,-6,74
32767,32767,-2122,-1642,-86,-146,25008,8270,4600,-15,32,103
32767,31414,-1952,-1473,-65,-100,24956,7846,5078,-40,67,142
32767,31050,-1590,-1073,-14,-27,24784,7736,5426,-97,108,133
32767,31650,-1382,-789,2,1,24578,8204,5444,-131,137,114
32767,32374,-1294,-731,51,-21,24470,8488,5374,-172,93,100
32767,32526,-650,-841,67,-22,24246,8204,5148,-193,76,111
32767,32046,-160,-927,50,-23,24626,7544,4930,-226,23,85
32767,31752,-118,-922,35,-22,25106,7198,4788,-184,39,65
32767,30956,-8,-829,23,20,25054,7022,5306,-128,68,53
32767,30602,174,-599,11,85,24622,7524,5370,-13,91,71
32767,30858,488,-407,-10,102,24230,8136,5380,-14,55,49
32767,31316,600,-306,-53,98,24442,8256,5144,-43,13,24
32767,32012,422,-378,-56,72,24866,8098,5106,-94,-2,16
32767,31902,382,-601,-65,44,25028,7880,4960,-108,8,29
32767,30200,516,-644,-63,80,24822,7956,5386,-100,42,36
32767,29154,716,-362,-50,116,24630,8056,5410,-95,45,37
32767,29318,604,18,-43,105,24502,8024,5154,-100,38,37
32767,32290,598,68,-4,25,24654,8052,5106,-97,37,22
32767,32767,394,-507,9,-50,24764,8038,5010,-141,44,18
32767,32550,816,-1169,41,-57,24792,7890,5326,-156,47,28
32767,29406,1006,-1232,51,-4,24654,7624,5242,-163,36,25
32767,27960,1550,-618,49,53,24572,7446,5206,-142,36,29
32767,29050,1600,-171,29,65,24488,7428,5098,-101,38,33
32767,30460,1468,-88,33,3,24476,7616,5236,-64,28,23
32767,30666,1576,-228,32,-24,24506,7790,5218,-45,8,6
32767,30292,1854,-365,26,-5,24630,7872,5136,-58,8,16
32767,30472,2066,-417,16,6,24492,7732,5086,-108,3,14
32767,31088,2018,-573,-3,-12,24622,7340,5092,-99,-4,28
32767,30314,1910,-760,-27,-10,24652,7210,5262,-70,11,26
32767,29042,1648,-665,-20,25,24612,7404,5000,-21,30,28
32767,29482,1736,-550,10,-6,24498,7706,5028,-18,24,14
32767,29866,1980,-570,44,-27,24608,7908,5142,-74,8,-14
32767,29806,2464,-672,41,-24,24760,7754,5184,-109,7,6
32767,29250,2736,-750,18,-4,24842,7210,5172,-118,12,48
32767,28666,2440,-737,8,-15,24792,7280,5160,-49,32,30
32767,28080,2580,-638,16,-1,24592,7822,5190,-22,45,18
32767,28294,2864,-492,33,25,24552,8230,5322,-38,35,16
32767,28598,3054,-446,34,3,24518,7970,5194,-94,10,21
32767,28878,3094,-485,32,-4,24736,7342,4876,-120,-6,20
32767,28848,3142,-594,32,3,24892,6938,5134,-120,10,1
32767,27958,3190,-647,13,4,24824,7040,5136,-102,21,4
32767,27346,3318,-544,13,14,24674,7236,5154,-92,35,12
32767,27554,3410,-395,14,-4,24496,7394,5178,-70,35,44
32767,27564,3512,-345,8,-7,24400,7582,5140,-68,13,31
32767,27052,3518,-249,-8,19,24536,7704,5300,-76,-1,9
32767,27076,3760,-94,-20,24,24800,7660,5170,-101,-11,-1
32767,28270,3572,-40,-10,-14,25024,7506,5280,-123,-1,5
32767,29786,3310,-307,9,-56,24886,7292,5276,-146,20,22
32767,29138,3288,-721,32,-74,24676,7164,5188,-135,32,40
32767,26828,3612,-852,62,-59,24572,7224,5176,-112,32,36
32767,25906,4066,-557,45,7,24606,7196,5180,-105,22,16
32767,26234,4212,-197,17,62,24814,7366,5200,-101,18,-8
32767,27716,4038,-93,1,27,24792,7310,5262,-129,30,13
32767,28922,3614,-333,14,-33,24644,7172,5194,-142,40,32
32767,28286,3676,-709,36,-34,24632,7114,5180,-146,33,30
32767,26528,4146,-825,39,5,24640,6970,5226,-125,27,15
32767,25764,4332,-688,41,5,24760,7030,5176,-104,28,-5
32767,26248,4194,-494,40,-26,24740,7036,5138,-100,35,-2
32767,26674,3934,-519,68,-47,24622,6986,5264,-98,43,14
32767,26744,4326,-619,107,-59,24550,6926,5186,-76,37,10
32767,26504,4500,-713,105,-77,24602,6954,5236,-64,22,-9
32767,26384,4738,-782,108,-91,24740,7028,5242,-89,14,-20
32767,26178,4742,-846,104,-85,24728,7060,5264,-100,20,2
32767,25688,4702,-900,111,-79,24742,6954,5152,-111,25,29
32767,25054,4928,-877,109,-61,24610,6836,5262,-97,39,29
32767,24524,5132,-666,71,-20,24580,6958,5248,-69,37,3
32767,24912,5146,-570,61,-39,24548,7180,5276,-64,35,2
32767,25340,5132,-598,62,-65,24576,7232,5320,-115,14,9
32767,25478,5054,-745,70,-69,24558,6936,5162,-139,4,22
32767,24628,5106,-858,80,-50,24722,6598,5092,-145,5,29
32767,23728,5276,-795,74,-51,24840,6510,5256,-119,16,22
32767,23402,5506,-658,69,-34,24708,6718,5272,-90,30,17
32767,23284,5592,-511,59,-9,24522,6936,5234,-88,32,15
32767,23116,5560,-390,54,-78,24416,7024,5220,-108,17,26
32767,23492,5344,-353,64,-129,24588,6836,5182,-120,-10,24
32767,23994,5510,-444,88,-159,24762,6700,5294,-125,-7,9
32767,23572,5456,-548,95,-191,24810,6556,5264,-121,-1,23
32767,22914,5548,-521,102,-204,24762,6578,5322,-119,13,29
32767,22680,5666,-385,119,-170,24728,6726,5256,-125,30,40
32767,23022,5704,-245,134,-135,24644,6722,5168,-119,28,38
32767,23696,5740,-248,124,-160,24634,6910,5322,-123,32,24
32767,24112,5944,-446,110,-184,24604,6854,5432,-140,25,26
32767,23486,6040,-572,81,-136,24652,6560,5298,-157,1,25
32767,22654,5852,-545,63,-109,24868,6304,5232,-167,2,7
32767,22334,5636,-425,73,-127,24638,6294,5106,-139,27,32
32767,22658,5538,-358,106,-143,24692,6352,5250,-135,28,35
32767,22976,5910,-401,118,-140,24730,6498,5364,-114,34,24
32767,22730,6174,-503,106,-127,24714,6466,5294,-94,32,19
32767,22050,6100,-544,74,-137,24720,6306,5230,-96,25,6
32767,21526,5902,-484,60,-159,24624,6234,5334,-110,14,-4
32767,21356,5844,-358,69,-150,24620,6328,5078,-111,13,-3
32767,21962,5816,-280,91,-137,24606,6190,5250,-119,16,11
32767,22146,5648,-309,123,-129,24706,5982,5340,-93,16,9
32767,21660,5886,-354,153,-157,24866,6044,5228,-57,24,3
32767,21176,6278,-295,151,-157,24830,6370,5274,-49,36,-1
32767,22542,6280,-232,19,-70,24674,6532,5358,-75,45,8
32767,21790,5980,-317,8,-53,24592,6424,5336,-95,48,28
32767,20848,6168,-237,-3,-5,24576,6146,5280,-106,39,26
32767,20784,6378,-39,-14,33,24598,6214,5232,-80,37,17
32767,21362,6332,64,-29,37,24592,6354,5228,-74,26,6
32767,21628,6132,39,-39,10,24694,6406,5192,-93,19,-6
32767,21612,5994,-5,-27,-13,24748,6142,5322,-119,37,7
32767,21806,6028,-86,-14,-18,24616,5988,5272,-119,40,31
32767,21352,6196,-135,-19,-18,24634,5982,5222,-94,39,27
32767,20824,6190,-65,-30,-7,24644,5976,5260,-82,35,5
32767,21022,6078,74,-34,3,24696,6118,5234,-87,30,1
32767,22018,5936,93,-19,-24,24728,6116,5312,-104,40,26
32767,22416,5874,-55,-4,-54,24740,5994,5218,-92,46,34
32767,21846,6048,-168,16,-42,24738,5870,5190,-74,62,6
32767,21332,6232,-131,18,-14,24742,5686,5192,-68,51,9
32767,21564,6294,-32,-4,-1,24690,6000,5374,-47,57,11
32767,21916,6258,-62,-28,-2,24598,6206,5390,-50,62,28
32767,21768,6068,-135,-45,7,24450,6178,5286,-51,48,34
32767,21590,5966,-185,-33,1,24516,5968,5206,-48,34,15
32767,21406,5916,-200,-17,-3,24664,5882,5254,-47,30,-14
32767,21230,5910,-205,5,-6,24598,6010,5312,-38,41,0
32767,21076,6114,-204,23,-27,24484,5952,5276,-43,38,11
32767,21406,6328,-202,-8,-38,24388,5950,5274,-41,30,-4
32767,21162,6288,-133,-21,-6,24492,5890,5284,-51,10,-1
32767,21302,6140,-54,-14,5,24716,5868,5196,-43,16,12
32767,21652,5930,-27,14,21,24748,5678,5264,-30,29,18
32767,21606,5978,-139,54,21,24702,5770,5336,-5,37,19
32767,20888,6446,-243,45,3,24770,6098,5382,-4,35,-15
32767,20124,6868,-213,13,9,24588,6384,5254,-23,51,-9
32767,20126,6840,-83,-36,4,24434,6150,5334,-48,53,27
32767,20784,6172,-2,-93,-30,24462,5872,5302,-39,27,9
32767,20822,5708,0,-74,-27,24514,6064,5384,-33,30,-7
32767,20612,5752,42,-38,-19,24578,6128,5314,-45,33,11
32767,20930,6066,125,-34,-4,24544,5942,5280,-61,34,13
32767,21698,6168,115,-24,22,24386,5938,5296,-65,35,8
32767,21612,6130,-16,-31,11,24468,5904,5216,-70,24,14
32767,21276,5960,-75,-19,-25,24514,5984,5188,-61,28,8
32767,21362,5812,-49,9,-23,24452,6004,5292,-77,22,-5
32767,21524,6194,-42,37,17,24440,6192,5356,-116,44,-14
32767,21088,6364,-75,19,13,24362,6312,5334,-150,48,2
32767,20592,6432,-52,-14,13,24360,6096,5500,-154,35,32
32767,20714,6466,18,-46,17,24662,5870,5344,-170,2,26
32767,21066,6240,21,-71,-9,24920,5648,5286,-160,-4,-9
32767,21090,5968,-12,-68,-27,24802,5604,5142,-157,11,-13
32767,20916,5900,-19,-39,-22,24584,5278,5344,-154,11,9
32767,20668,5982,44,-11,-9,24448,5236,5336,-114,-9,22
32767,21574,6340,90,-3,-24,24484,5398,5322,-81,-39,11
32767,21744,6412,-27,-28,-29,24548,5456,5280,-58,-38,21
32767,21162,6474,-73,-48,-19,24762,5332,5054,-39,-40,28
32767,20914,6258,-4,-74,-5,24862,5296,5362,-38,-19,24
32767,21190,6016,85,-71,4,24906,5570,5302,-26,14,31
32767,21778,5920,59,-58,-5,24722,5738,5374,-14,43,69
32767,21700,5936,-59,-36,-11,24548,5842,5302,-24,46,61
32767,21180,6132,-137,-24,-16,24406,5922,5278,-31,40,46
32767,20570,6222,-68,-29,-6,24708,5712,5342,-43,22,31
32767,20790,6182,39,-47,-2,24716,5698,5268,-42,36,-3
32767,21364,6098,63,-51,-9,24576,5604,5306,-43,49,10
32767,21554,6076,-8,-45,-22,24528,5466,5304,-47,35,27
32767,21342,6070,-69,-29,-40,24468,5528,5286,-40,37,11
32767,21184,6216,-48,-23,-30,24436,5516,5238,-36,36,22
32767,21304,6346,-13,-22,-12,24348,5410,5254,-27,33,37
32767,21468,6380,-14,-41,-10,24456,5422,5238,-12,19,24
32767,21458,6254,-76,-68,-16,24658,5700,5370,-8,15,-2
32767,21146,6052,-98,-75,-1,24648,5756,5352,-21,27,20
32767,20984,5874,-2,-46,-4,24416,5586,5296,-27,34,28
32767,21348,5928,-13,-24,-10,24420,5610,5216,-13,21,8
32767,21102,6082,-74,-2,-12,24548,5734,5298,-13,4,-7
32767,20978,6302,-72,-3,-27,24682,5856,5358,-23,10,-2
32767,21086,6480,-26,-27,-24,24646,5658,5324,-41,12,2
32767,21326,6378,-13,-46,-8,24706,5464,5260,-33,15,-14
32767,21282,6206,-17,-65,-7,24590,5490,5316,-28,32,-10
32767,21194,5912,-16,-51,-13,24514,5536,5242,-13,33,2
32767,21194,5830,-8,-18,-4,24470,5700,5346,-20,36,-5
32767,21118,6014,-15,-1,-10,24574,5748,5262,-23,32,9
32767,21068,6244,-30,4,-23,24556,5674,5280,-28,34,16
32767,21066,6230,-45,-11,-32,24548,5608,5408,-20,26,8
32767,21296,6318,-29,-23,-38,24546,5728,5360,-22,11,-16
32767,21548,6152,-31,-32,-20,24594,5730,5268,-27,12,-7
32767,21430,6068,-49,-30,1,24660,5660,5406,-34,8,3
32767,21202,6154,-55,-30,-2,24660,5642,5278,-37,16,20
32767,21066,6192,-20,-33,7,24694,5594,5350,-32,13,17
32767,21088,6230,10,-35,11,24730,5632,5312,-29,16,0
32767,21446,6316,-19,-59,3,24670,5650,5202,-36,26,3
32767,21230,6198,-73,-73,-1,24610,5536,5300,-38,32,15
32767,20888,5938,-60,-70,-12,24444,5500,5214,-29,36,15
32767,20870,5820,-2,-47,-12,24512,5548,5450,-23,26,3
32767,21132,5982,29,-28,-9,24522,5732,5368,-26,30,17
32767,21420,6228,8,-20,-19,24474,5656,5262,-27,18,11
32767,21432,6446,-23,-29,-15,24526,5656,5264,-20,17,-5
32767,21462,6238,-54,-41,-13,24628,5586,5172,-16,13,-4
32767,21278,5880,-94,-33,-4,24692,5514,5274,-19,18,-12
32767,21066,5898,-101,-14,0,24680,5624,5404,-25,29,-3
32767,20912,6108,-69,-3,2,24660,5666,5368,-27,35,20
32767,21022,6264,-26,-3,1,24590,5666,5474,-30,38,13
32767,21248,6296,-28,-7,-13,24566,5692,5400,-32,40,9
32767,21382,6218,-50,-13,-24,24524,5718,5294,-32,48,2
32767,21296,6232,-79,-24,-22,24386,5696,5280,-37,46,-13
32767,21124,6162,-103,-39,-10,24414,5666,5252,-36,33,-9
32767,20628,6258,-108,-52,-16,24450,5602,5262,-37,21,5
32767,20576,6286,-25,-60,-9,24530,5476,5316,-40,7,0
32767,21134,6090,32,-63,-11,24616,5544,5244,-25,14,-4
32767,21464,5904,5,-35,-21,24632,5592,5350,-24,21,-2
32767,21390,5856,-60,-10,-19,24610,5686,5240,-21,28,-6
32767,21106,6254,-98,-9,-18,24502,5680,5292,-32,35,-1
32767,20948,6406,-76,-20,-16,24374,5606,5352,-41,33,11
32767,21172,6278,-45,-54,-7,24454,5530,5312,-36,22,23
32767,21072,6142,-32,-55,11,24484,5532,5280,-23,9,41
32767,20832,6030,-17,-53,21,24688,5614,5250,-19,3,54
32767,20906,6030,2,-35,5,24782,5692,5236,-25,17,59
32767,21174,5978,-21,-27,-16,24734,5764,5336,-38,36,54
32767,21174,6126,-71,-13,-11,24684,5762,5398,-45,43,41
32767,20948,6116,-84,-8,-11,24562,5776,5374,-45,40,16
32767,20866,6206,-41,-2,-19,24556,5598,5348,-39,26,-4
32767,21140,6412,31,-24,7,24476,5500,5296,-33,25,-27
32767,21390,6512,2,-52,-5,24582,5570,5216,-21,28,-34
32767,21208,6428,-58,-74,-24,24492,5610,5240,-30,39,-5
32767,21050,6134,-74,-86,-13,24406,5566,5276,-36,38,21
32767,20842,5938,-55,-68,-9,24588,5606,5300,-42,28,11
32767,20794,5848,-20,-43,-17,24486,5534,5372,-27,35,17
32767,20898,6046,1,-18,-20,24568,5470,5178,-22,15,-3
32767,20940,6368,-2,-23,-19,24484,5740,5446,-20,37,-1
32767,21028,6400,3,-47,-20,24452,5768,5336,-34,28,24
32767,21248,6212,-5,-61,-40,24454,5612,5372,-44,24,18
32767,21458,6136,-23,-58,-23,24552,5434,5320,-32,16,15
32767,21366,6092,-56,-56,5,24656,5388,5304,-8,15,29
32767,21014,6088,-63,-52,2,24654,5488,5200,6,29,27
32767,21062,6136,-17,-50,-8,24528,5730,5212,-8,43,39
32767,21222,6102,-13,-50,2,24518,5688,5218,-23,38,54
32767,20790,6210,-28,-55,-13,24466,5674,5324,-32,37,18
32767,20972,6004,9,-50,-4,24424,5698,5270,-25,39,20
32767,21136,5968,1,-37,-13,24370,5624,5296,-22,27,19
32767,21244,6092,-35,-30,-26,24434,5750,5370,-24,25,7
32767,21112,6246,-52,-30,-18,24380,5772,5414,-29,17,4
32767,20978,6350,-17,-56,2,24456,5608,5304,-37,3,1
32767,21116,6146,-1,-65,-6,24600,5498,5208,-29,4,-6
32767,21268,5934,-21,-56,-6,24658,5558,5218,-23,14,-6
32767,21152,5820,-64,-30,-5,24510,5600,5244,-16,33,-5
32767,20916,6070,-72,-17,-15,24438,5528,5294,-15,28,-4
32767,20768,6320,-41,-22,-17,24412,5578,5320,-20,24,1
32767,20836,6272,-10,-31,-22,24502,5718,5400,-17,13,0
32767,21136,6198,-11,-46,-22,24572,5734,5414,-31,7,6
32767,21088,6218,-38,-44,-26,24704,5702,5224,-34,6,1
32767,20996,6196,-35,-50,-20,24590,5668,5280,-36,30,3
32767,21110,6222,-8,-50,-12,24470,5708,5260,-37,30,17
32767,21198,6016,4,-45,-8,24546,5716,5294,-39,18,-6
32767,21294,6060,-13,-30,-9,24524,5676,5260,-45,22,-5
32767,21232,6106,-61,-23,-18,24558,5486,5306,-42,23,13
32767,21028,6188,-96,-20,-18,24442,5434,5336,-31,26,0
32767,20824,6410,-74,-37,-11,24514,5576,5226,-23,28,-3
32767,20900,6372,11,-67,0,24460,5602,5290,-24,25,-4
32767,21222,6022,31,-63,1,24438,5654,5398,-19,29,-5
32767,21374,5866,-25,-35,-8,24454,5656,5264,-21,27,2
32767,21094,6048,-105,-26,-18,24484,5650,5446,-22,16,-1
32767,20654,6276,-99,-24,-20,24544,5692,5282,-24,15,-15
32767,20722,6352,-23,-43,-13,24666,5634,5258,-32,11,-11
32767,21096,6128,23,-48,-9,24636,5630,5218,-30,23,-13
32767,21350,5916,9,-30,-1,24554,5630,5340,-32,34,-11
32767,21246,6180,-46,-26,0,24438,5584,5368,-28,32,-4
32767,21064,6366,-78,-33,-8,24486,5556,5314,-26,26,-12
32767,20848,6410,-85,-61,-10,24550,5674,5276,-29,25,-13
32767,20758,6268,-29,-78,5,24416,5614,5366,-27,40,6
32767,20832,5876,31,-62,2,24530,5558,5356,-39,18,-14
32767,21058,5862,43,-29,-11,24496,5698,5310,-26,29,-12
32767,21298,5974,2,-10,-14,24490,5608,5286,-27,24,8
32767,21146,6482,-106,-24,-19,24454,5604,5270,-21,24,6
32767,20738,6508,-89,-54,-19,24502,5656,5316,-24,20,-2
32767,20700,6208,6,-72,-12,24554,5672,5230,-37,21,3
32767,21108,5908,71,-59,2,24594,5562,5266,-32,29,8
32767,21452,6022,35,-42,-4,24506,5634,5304,-29,32,-6
32767,21468,6266,-61,-40,-3,24398,5702,5338,-30,30,1
32767,20984,6234,-121,-48,2,24446,5648,5136,-35,14,2
32767,20596,6160,-97,-62,-7,24568,5506,5366,-36,12,-11
32767,20820,5806,17,-40,-12,24580,5616,5222,-37,25,-3
32767,21334,5986,43,-18,-4,24462,5664,5218,-34,34,17
32767,21512,6188,-9,-1,-2,24434,5678,5302,-31,33,17
32767,21268,6486,-86,-15,-6,24418,5672,5250,-21,21,1
32767,20832,6542,-94,-50,-5,24546,5606,5324,-28,12,-8
32767,20784,6282,-48,-76,2,24492,5650,5322,-32,26,10
32767,20824,5934,-12,-73,-1,24468,5560,5302,-34,23,15
32767,20910,5776,10,-50,-4,24494,5650,5340,-26,18,5
32767,20934,6056,21,-20,1,24492,5684,5254,-24,19,8
32767,21144,6348,19,-26,-4,24590,5562,5194,-29,10,1
32767,21334,6254,-29,-37,-12,24672,5544,5250,-32,18,-11
32767,21072,6130,-77,-41,-19,24574,5588,5324,-32,39,7
32767,20798,6080,-52,-33,-22,24378,5642,5288,-25,46,20
32767,20942,6046,20,-28,-14,24336,5744,5336,-24,15,-1
32767,21194,6342,62,-27,6,24388,5754,5332,-33,0,-3
32767,21464,6268,32,-31,16,24636,5506,5346,-41,-5,-6
32767,21092,6182,-66,-64,2,24722,5430,5350,-42,11,4
32767,20764,6096,-73,-54,-15,24602,5558,5278,-38,43,23
32767,20730,5910,-34,-40,-15,24394,5632,5312,-32,46,26
32767,20820,6044,26,-14,-7,24414,5748,5278,-26,37,7
32767,21248,6594,42,-32,-2,24476,5670,5252,-32,27,3
32767,21472,6416,-24,-73,2,24554,5608,5252,-35,30,5
32767,21246,5984,-71,-85,-11,24416,5590,5348,-33,29,10
32767,21004,5704,-59,-53,-19,24382,5660,5372,-36,20,-3
32767,21102,5776,-30,-18,-12,24432,5672,5314,-41,17,4
32767,21280,6120,-17,-1,-1,24476,5586,5284,-46,17,14
32767,21312,6452,-37,-10,5,24532,5454,5240,-35,15,4
32767,21024,6450,-53,-36,11,24540,5362,5244,-24,13,-3
32767,20868,6076,-24,-49,6,24536,5476,5354,-17,17,-3
32767,20950,5986,-16,-39,-8,24462,5724,5362,-15,27,5
32767,21084,6128,-27,-34,-21,24380,5798,5304,-26,14,10
32767,21004,6256,-31,-36,-14,24448,5714,5306,-29,11,4
32767,20946,6228,1,-35,-1,24572,5626,5326,-31,10,6
32767,21090,6042,43,-36,0,24564,5516,5336,-28,13,4
32767,21456,6150,33,-30,-3,24548,5522,5264,-21,17,-1
32767,21550,6284,-66,-35,-16,24548,5588,5340,-28,23,4
32767,20836,6234,-124,-38,-24,24524,5620,5286,-30,22,10
32767,20688,6188,-41,-39,-21,24486,5562,5216,-34,19,10
32767,21030,6166,51,-46,-2,24462,5534,5264,-31,13,6
32767,21392,6246,63,-53,8,24598,5544,5340,-24,12,4
32767,21476,6306,4,-61,5,24608,5530,5422,-26,19,6
32767,21140,6162,-51,-64,0,24520,5652,5346,-24,25,20
32767,20824,6034,-34,-58,-4,24480,5676,5364,-22,23,20
32767,21060,6052,-1,-48,-21,24518,5760,5288,-24,7,-8
32767,21272,6104,-4,-35,-6,24592,5686,5274,-37,18,-5
32767,21232,6328,7,-46,17,24554,5564,5416,-35,31,27
32767,21316,6280,29,-66,27,24486,5478,5454,-30,27,16
32767,21456,6276,12,-77,25,24506,5586,5236,-19,20,4
32767,21478,6188,-56,-97,10,24522,5664,5212,-25,17,13
32767,21252,6122,-100,-94,2,24478,5644,5312,-33,13,17
32767,20846,5844,-92,-72,0,24444,5598,5240,-33,15,7
32767,20646,5714,0,-44,22,24464,5490,5294,-30,13,8
32767,21100,6016,69,-15,29,24504,5546,5186,-18,18,16
32767,21490,6462,6,-30,-5,24510,5662,5290,-17,11,4
32767,21484,6334,-75,-46,-19,24582,5744,5362,-31,19,8
32767,21338,6192,-110,-55,-10,24518,5652,5220,-43,24,23
32767,21102,5842,-97,-43,-3,24476,5492,5274,-37,17,28
32767,21000,5800,-48,-26,12,24552,5454,5252,-24,3,15
32767,20968,6188,-30,-22,17,24608,5624,5266,-13,5,-1
32767,20878,6304,-23,-26,4,24610,5710,5302,-17,19,9
32767,21054,6208,-18,-39,-27,24420,5678,5290,-24,12,12
32767,21238,5992,-25,-26,-30,24462,5592,5278,-27,2,7
32767,21314,6122,-36,-13,-11,24640,5634,5394,-29,-8,1
32767,21230,6290,-49,-19,-4,24840,5650,5262,-41,-1,10
32767,21058,6516,-48,-47,2,24722,5504,5300,-40,23,15
32767,21060,6392,-22,-79,12,24490,5556,5270,-38,34,22
32767,21170,6060,-17,-82,-3,24284,5660,5330,-27,35,19
32767,21206,5922,-23,-51,-10,24338,5768,5290,-33,8,-3
32767,21212,6192,-29,-49,-1,24484,5678,5322,-36,1,-4
32767,21396,6882,-25,-96,27,24552,5572,5256,-45,3,11
32767,21466,6672,-28,-147,43,24540,5460,5258,-37,6,12
32767,21450,6312,-46,-186,43,24774,5568,5230,-24,19,-3
32767,21220,5514,-31,-164,62,24664,5704,5304,-32,31,7
32767,20970,5294,-29,-83,57,24570,5630,5372,-40,38,16
32767,20726,5576,-13,-11,28,24496,5558,5378,-44,33,20
32767,20954,6344,-50,22,-17,24564,5478,5220,-35,19,11
32767,20900,6616,-75,0,-12,24722,5576,5224,-25,24,8
32767,20812,6478,-56,-40,-12,24652,5710,5186,-23,36,11
32767,20922,6182,5,-64,-17,24632,5702,5366,-28,45,11
32767,21250,5954,36,-56,-13,24530,5616,5336,-40,46,12
32767,21580,5918,29,-31,-12,24530,5468,5368,-43,34,15
32767,21634,6068,-36,-18,-23,24552,5398,5268,-37,29,13
32767,21264,6248,-74,-11,-15,24562,5440,5196,-28,26,18
32767,20996,6324,-38,-36,10,24506,5522,5286,-18,30,17
32767,20988,6228,-2,-56,16,24512,5634,5422,-12,29,11
32767,21256,5946,-18,-43,-13,24484,5760,5358,-22,25,18
32767,21134,5890,-49,-11,-22,24400,5716,5276,-30,21,30
32767,20976,6232,-44,1,-17,24460,5512,5224,-34,-2,12
32767,21012,6742,16,-45,5,24570,5468,5268,-32,-2,0
32767,21260,6670,56,-105,22,24598,5494,5352,-30,8,25
32767,21454,6238,62,-139,38,24422,5710,5346,-29,18,38
32767,21480,5788,38,-133,41,24416,5752,5378,-31,-1,18
32767,21266,5564,1,-81,28,24456,5858,5134,-31,-15,-3
32767,21296,5672,-13,-33,10,24650,5632,5228,-40,-18,-2
32767,21236,6070,-72,-4,-3,24850,5406,5198,-38,-3,-4
32767,20780,6400,-83,-31,-4,24918,5292,5316,-46,23,5
32767,20786,6394,-27,-60,1,24650,5262,5200,-23,53,29
32767,21046,6146,31,-73,1,24476,5444,5330,-10,51,37
32767,21564,5958,12,-62,-18,24470,5792,5288,1,31,18
32767,21552,5904,-52,-43,-20,24488,5930,5286,-15,20,3
32767,21268,6060,-68,-30,-14,24600,5812,5328,-29,13,21
32767,21050,6330,-27,-35,-12,24604,5522,5316,-42,12,11
32767,21324,6248,22,-40,4,24598,5512,5276,-30,21,1
32767,21598,6022,-53,-29,-1,24630,5462,5246,-31,22,15
32767,21150,6102,-122,-34,-10,24578,5682,5346,-27,37,17
32767,20730,6300,-106,-39,-3,24356,5678,5336,-33,34,20
32767,20566,6328,-13,-54,5,24414,5504,5306,-31,10,8
32767,21148,6250,52,-63,-6,24532,5392,5194,-23,-3,-17
32767,21532,5988,16,-50,-16,24578,5392,5274,-15,8,-11
32767,21468,6024,-63,-36,-22,24524,5546,5372,-4,22,11
32767,21132,6286,-79,-39,-15,24528,5674,5442,-6,18,10
32767,21074,6282,-18,-58,-1,24508,5866,5424,-31,4,7
32767,21312,5976,1,-54,-7,24630,5810,5186,-28,-1,13
32767,21410,5880,-31,-39,-13,24718,5578,5286,-44,-5,-6
32767,21318,6078,-59,-21,-10,24660,5472,5250,-45,12,9
32767,21192,6302,-54,-30,-8,24674,5262,5200,-38,19,20
32767,21258,6400,-36,-43,-1,24706,5384,5286,-23,25,11
32767,21354,6260,-47,-62,4,24650,5680,5320,-18,33,22
32767,21362,6244,-66,-70,7,24620,5770,5328,-24,28,27
32767,21168,6188,-64,-81,18,24608,5744,5226,-29,19,13
32767,20816,6238,-12,-94,34,24620,5656,5372,-28,24,9
32767,20426,6330,111,-120,63,24528,5678,5310,-23,23,13
32767,19664,6462,339,-160,94,24496,5716,5378,-34,20,7
32767,20206,6442,681,-211,124,24518,5668,5320,-39,15,14
32767,21618,6380,850,-254,163,24578,5486,5172,-44,6,13
32767,22262,6276,848,-265,210,24642,5416,5238,-34,19,2
32767,22412,6194,745,-297,178,24656,5534,5280,-26,30,13
32767,22894,5970,673,-318,217,24604,5542,5362,-25,29,14
32767,23314,5804,609,-333,285,24398,5696,5256,-30,33,18
32767,23086,5630,516,-322,264,24480,5470,5290,-30,18,11
32767,22700,5572,467,-282,223,24678,5484,5208,-19,14,-8
32767,22308,5746,502,-261,236,24672,5642,5262,-13,24,1
32767,22374,5754,627,-225,248,24574,5734,5312,-26,30,22
32767,22590,6028,685,-241,235,24568,5706,5308,-31,19,12
32767,21524,6062,893,-304,228,24730,5608,5290,-35,14,-7
32767,21176,5976,1288,-339,253,24798,5476,5228,-30,24,4
32767,21418,5330,1769,-374,278,24592,5512,5362,-29,41,21
32767,23340,4864,2132,-355,253,24476,5628,5364,-26,29,19
32767,26102,4470,2043,-330,186,24570,5652,5360,-36,19,5
32767,26554,4200,1739,-319,114,24654,5580,5260,-31,17,11
32767,24836,4190,1672,-316,101,24576,5590,5348,-30,27,22
32767,24116,4188,1994,-280,124,24536,5490,5270,-17,25,15
32767,27858,3814,2275,-255,91,24458,5456,5164,11,25,-3
32767,30886,2960,1896,-237,16,24492,5384,5180,31,24,-10
32767,30878,2672,1257,-235,-19,24590,5544,5266,66,22,-17
32767,28706,2392,976,-202,61,24622,5706,5298,76,27,-14
32767,26970,2692,1102,-148,85,24638,5748,5430,67,29,-17
32767,26238,2896,1466,-110,57,24684,5756,5184,36,33,-15
32767,30514,2060,2030,-78,111,24626,5730,5364,39,33,-2
32767,30384,1694,1819,-109,98,24578,5974,5384,39,49,7
32767,29944,1698,1819,-155,130,24544,6138,5340,33,40,6
32767,29740,1280,1901,-215,118,24496,5968,5246,6,31,-6
32767,29958,554,2111,-196,111,24486,5662,5316,-5,16,-17
32767,31030,-176,2318,-165,148,24542,5516,5332,-1,13,-9
32767,32767,-912,2171,-154,117,24522,5496,5328,18,15,0
32767,32767,-1400,1449,-159,86,24596,5492,5222,45,19,0
32767,32592,-1394,1146,-154,159,24460,5666,5226,92,30,2
32767,30548,-1486,1409,-109,233,24310,5756,4996,95,21,-9
32767,32238,-2162,1807,-78,177,24304,5820,5448,89,-16,-44
32767,32767,-2964,1711,-34,97,24498,5950,5238,107,-21,-41
32767,32767,-2804,1580,14,167,24764,5618,5118,120,-19,-32
32767,32078,-2870,1857,16,285,24812,5616,5282,193,31,-43
32767,32767,-3690,2240,-49,301,24764,6222,5210,202,46,-52
32767,32767,-4388,1902,-66,260,24550,6576,5676,132,30,-45
32767,32767,-4940,1186,-95,148,24554,6628,5290,90,15,-4
32767,32767,-4836,818,-97,180,24642,6102,5362,81,12,18
32767,32092,-5006,1137,-80,337,24746,6144,5236,120,29,-3
32767,32414,-5212,1613,-76,369,24804,6442,5306,144,57,-27
32767,32767,-5976,1819,-63,299,24520,6602,5346,125,64,-35
32767,32767,-6402,1698,-34,264,24464,6500,5372,85,31,-31
32767,32767,-6664,1446,-48,265,24504,6128,5358,93,13,-14
32767,32767,-6922,1373,-108,287,24702,5958,5210,134,15,-35
32767,32767,-7286,1465,-132,317,24710,6214,5444,175,29,-62
32767,32767,-7974,1476,-129,286,24590,6536,5434,184,37,-47
32767,32767,-8710,1398,-90,212,24358,6668,4978,152,34,-15
32767,32767,-9026,1345,-16,163,24460,6692,5188,141,1,-7
32767,32767,-9408,1429,-1,143,24814,6676,5316,117,-5,-12
32767,32767,-9796,1364,-19,142,24832,6538,5356,120,19,-1
32767,32767,-10036,987,-62,88,24526,6672,5340,182,37,15
32767,32767,-10050,934,-71,148,24196,7206,5228,191,29,-5
32767,32767,-10396,945,-105,229,24362,7398,5476,149,-16,-24
32767,32767,-10870,754,-122,191,24718,7140,5444,60,-8,-20
32767,32767,-10966,517,-115,84,24802,7166,5372,68,9,-4
32767,32767,-11080,519,-87,57,24654,7550,4820,33,11,-12
32767,32767,-11310,705,-58,95,24274,7128,5328,15,-9,3
32767,32767,-11508,826,-55,137,24294,6788,5286,-20,-49,4
32767,32767,-11790,522,-122,101,24756,6306,5434,17,-35,1
32767,32767,-11928,149,-139,41,24842,6760,5436,103,-1,-10
32767,32767,-12086,-129,-130,-17,24646,7352,5352,97,5,-32
32767,32767,-12182,-189,-90,-73,24640,7432,5238,24,-5,-62
32767,32767,-11860,66,-46,-86,24594,6858,5236,-40,-11,-71
32767,32767,-11602,438,-26,-15,24602,6446,4966,18,-23,-52
32767,32767,-11520,613,-6,17,24594,6626,5332,121,-32,-53
32767,32767,-11648,503,-22,-50,24596,7262,5334,143,-44,-84
32767,32767,-11874,231,-90,-117,24618,7280,5006,96,-65,-84
32767,32767,-12124,151,-120,-103,24706,6674,5362,83,-77,-97
32767,32767,-12498,97,-132,-120,24992,6090,4302,308,-87,-116
32767,32767,-12790,-25,-134,-125,24758,7462,5114,310,-41,-118
32767,32767,-12900,-132,-107,-95,24800,8518,5064,337,-19,-48
32767,32767,-12858,-220,-76,-79,25122,8238,5232,178,-10,-45
32767,32767,-12508,-90,-25,-30,25030,7600,5092,76,21,-67
32767,32767,-12130,84,-17,11,24806,7474,5106,84,24,-89
32767,32767,-11996,-38,-40,-36,24438,7634,4970,148,16,-30
32767,32767,-11946,-139,-52,-66,24862,7612,5068,160,15,-62
32767,32767,-12038,-193,-70,-78,24894,8084,5048,154,22,-62
32767,32767,-12146,-144,-56,-73,24806,8108,5252,123,23,-46
32767,32767,-12130,-15,-53,-44,24610,8140,5006,119,16,-60
32767,32767,-12148,-25,-71,-21,24684,8198,5036,113,11,-53
32767,32767,-12220,-270,-61,-58,24806,8208,4878,93,5,-32
32767,32767,-11954,38,-28,-3,24930,8298,4956,87,6,-7
32767,32767,-11882,208,-8,11,24982,8368,5200,17,19,-2
32767,32767,-11912,80,-24,-25,25090,8006,5256,-12,42,-14
32767,32767,-12106,-193,-57,-65,24962,7944,5242,-30,60,-27
32767,32767,-12118,-347,-66,-91,24766,7714,5140,-48,61,-45
32767,32767,-11984,-328,-52,-70,24654,7578,4990,-24,49,-51
32767,32767,-11716,123,-10,24,24674,7758,5068,34,46,-40
32767,32767,-11768,236,-26,34,24768,8024,5176,72,42,-30
32767,32767,-11770,63,-64,7,24712,8234,5000,83,38,-21
32767,32767,-11778,-197,-92,-24,24698,8392,5024,82,38,-3
32767,32767,-11964,-310,-85,-61,24512,8798,5034,31,45,6
32767,32767,-12052,-150,-44,-50,24788,8378,5252,-62,42,-7
32767,32767,-11892,212,19,-5,24630,8042,5118,-92,49,-16
32767,32767,-12012,367,55,-12,24506,7984,5082,-66,44,-5
32767,32767,-12036,211,38,-88,24716,7888,4998,-64,40,-16
32767,32767,-12058,-37,-11,-102,24770,7852,5094,-55,48,3
32767,32767,-12112,-196,-31,-102,24686,7908,5064,-25,48,21
32767,32767,-12252,-274,-42,-110,24716,7954,5176,-19,44,5
32767,32767,-12206,-168,-34,-64,24618,8242,5138,-1,44,8
32767,32767,-11702,9,-16,-3,24638,8350,5068,-13,33,5
32767,32767,-11530,70,-23,2,24580,8244,5020,-28,29,8
32767,32767,-11602,-30,-53,-16,24730,8032,5156,-58,27,7
32767,32767,-11680,-200,-89,-27,24676,7930,5186,-73,34,2
32767,32767,-11922,-126,-108,-15,24486,7804,5202,-54,33,5
32767,32767,-12202,-34,-95,-15,24552,7934,4986,-39,25,-1
32767,32767,-12284,-17,-65,-11,24714,8046,5002,-22,23,5
32767,32767,-12076,-4,-35,6,24584,8178,5014,-20,30,21
32767,32767,-11930,-50,-37,-17,24656,8070,5058,-30,27,30
32767,32767,-11822,-125,-47,-50,24726,7990,5294,-45,31,6
32767,32767,-11836,-192,-56,-57,24554,8088,5098,-50,30,5
32767,32767,-11992,-172,-40,-58,24576,7896,4998,-41,17,-9
32767,32767,-11804,-123,-23,-41,24710,8010,5010,-24,21,-5
32767,32767,-11544,-45,-25,-9,24774,8040,5072,-27,23,13
32767,32767,-11542,-71,-48,-1,24772,7762,5044,-35,25,14
32767,32767,-11636,-73,-63,-7,24676,7736,5198,-4,40,2
32767,32767,-11668,-95,-60,-24,24606,7966,5250,26,34,0
32767,32767,-11760,-96,-38,-49,24538,8104,4992,12,31,-19
32767,32767,-11462,-96,-61,-38,24588,8234,4876,38,33,3
32767,32767,-11526,-54,-75,3,24616,8602,5072,33,33,14
32767,32767,-11628,-54,-90,18,24576,8740,5004,-15,36,23
32767,32767,-11814,-83,-80,6,24638,8190,5026,-74,33,12
32767,32767,-11916,-85,-47,-16,24584,7950,5228,-80,35,0
32767,32767,-11858,-40,-19,-45,24490,7818,5144,-60,21,-6
32767,32767,-11802,-41,-7,-55,24668,7584,4964,-29,11,-17
32767,32767,-11620,-112,-28,-42,24688,7776,4996,14,17,6
32767,32767,-11384,-165,-51,-13,24634,8278,5152,25,25,16
32767,32767,-11372,-168,-46,-7,24676,8516,5154,-12,25,16
32767,32767,-11474,-117,-33,-22,24660,8184,5126,-51,25,4
32767,32767,-11522,-46,-20,-37,24636,7982,5138,-46,28,-2
32767,32767,-11336,3,-30,-20,24494,8106,5134,-25,28,1
32767,32767,-11438,-10,-54,2,24534,8238,5034,-34,21,-5
32767,32767,-11374,-67,-59,6,24614,8118,4990,-45,27,11
32767,32767,-11328,-111,-66,3,24544,7992,5120,-50,28,19
32767,32767,-11452,-120,-59,-30,24540,8000,5084,-48,24,22
32767,32767,-11572,-83,-42,-54,24570,8018,5120,-40,21,18
32767,32767,-11602,-30,-30,-36,24540,8162,5150,-34,18,14
32767,32767,-11430,-20,-19,-1,24638,8008,5104,-61,16,1
32767,32767,-11234,-63,-32,-17,24720,7828,5044,-58,19,2
32767,32767,-11260,-142,-54,-26,24644,7670,5130,-31,20,8
32767,32767,-11328,-123,-56,-38,24672,8050,5026,9,25,17
32767,32767,-11378,-47,-35,-24,24674,8368,5182,2,26,16
32767,32767,-11348,5,-17,-10,24604,8298,5204,-49,25,5
32767,32767,-11262,-18,-43,-16,24556,7830,5020,-57,22,6
32767,32767,-11094,-134,-57,-35,24596,7834,5116,-35,20,3
32767,32767,-11240,-253,-91,-45,24730,8002,5024,-8,22,9
32767,32767,-11332,-323,-65,-58,24592,8346,5110,3,30,20
32767,32767,-11332,-161,-14,-47,24602,8466,5068,-21,27,19
32767,32767,-11130,73,27,-23,24682,8168,5158,-62,30,18
32767,32767,-10950,225,9,0,24458,7826,5106,-80,25,15
32767,32767,-10944,83,-38,-13,24480,7588,5060,-59,19,8
32767,32767,-11070,-173,-71,-33,24524,7736,5084,-22,12,9
32767,32767,-11124,-232,-67,-18,24638,8012,5116,3,16,12
32767,32767,-11120,-88,-46,1,24674,8296,5188,3,21,16
32767,32767,-11142,28,-26,-24,24628,8206,5148,-32,23,11
32767,32767,-11112,23,-37,-18,24652,7938,5012,-46,20,10
32767,32767,-11126,-34,-60,3,24706,8070,4884,-28,24,3
32767,32767,-11222,-117,-58,-2,24478,8050,5302,-40,31,9
32767,32767,-11280,-155,-42,-26,24650,7848,4976,-43,22,18
32767,32767,-11166,-133,-7,-56,24666,8036,5222,-5,32,-1
32767,32767,-11036,-58,3,-59,24482,8210,5196,-21,28,20
32767,32767,-10954,-1,-5,-54,24566,8078,4992,-27,21,11
32767,32767,-10834,3,-34,-27,24656,8058,5054,-37,26,10
32767,32767,-10910,-58,-47,-17,24642,7898,5108,-39,26,18
32767,32767,-11016,-180,-51,-40,24556,7892,5086,-15,26,14
32767,32767,-11146,-243,-35,-71,24626,8044,5066,-17,26,3
32767,32767,-11090,-156,-16,-57,24584,8280,5058,-15,30,10
32767,32767,-10770,20,-14,-14,24582,8316,5074,-39,29,11
32767,32767,-10690,149,-21,26,24550,8134,5018,-51,27,18
32767,32767,-10900,78,-54,34,24640,7862,5122,-55,27,29
32767,32767,-10950,-143,-66,-2,24694,7768,5162,-38,32,24
32767,32767,-11046,-192,-65,-35,24670,7924,5124,-28,41,15
32767,32767,-10954,-82,-54,-27,24552,8224,5132,-15,45,14
32767,32767,-10910,68,-34,3,24514,8418,5054,-51,38,2
32767,32767,-10844,73,-42,4,24566,7894,5042,-81,35,3
32767,32767,-10878,-61,-48,-12,24600,7566,5052,-55,36,11
32767,32767,-10920,-186,-55,-51,24502,7848,5154,-9,29,14
32767,32767,-11112,-248,-43,-108,24540,8106,5042,1,22,11
32767,32767,-10954,-276,-32,-128,24688,8150,5098,-19,24,6
32767,32767,-10628,-110,-27,-49,24542,8298,5142,-30,29,11
32767,32767,-10320,104,-37,6,24564,8134,5088,-55,27,3
32767,32767,-10302,144,-66,49,24574,7740,5088,-51,24,6
32767,32767,-10520,25,-105,41,24538,7766,5090,-21,23,10
32767,32767,-10732,-125,-139,-9,24616,8090,5064,2,26,18
32767,32767,-10970,-154,-138,-29,24596,8344,5176,-17,32,17
32767,32767,-11192,12,-72,7,24482,8190,5148,-67,30,12
32767,32767,-11084,116,-42,26,24468,8016,5086,-83,23,7
32767,32767,-10882,100,-27,29,24502,7690,5022,-80,13,4
32767,32767,-10780,-15,-45,11,24654,7660,4960,-30,15,17
32767,32767,-10770,-116,-59,-3,24628,8118,5192,8,21,29
32767,32767,-10730,-103,-52,-10,24538,8360,5226,-15,26,22
32767,32767,-10826,-8,-48,-10,24516,8270,5178,-61,21,12
32767,32767,-11070,85,-25,6,24454,7894,5128,-78,15,0
32767,32767,-10912,87,-34,31,24484,7734,5034,-68,10,-1
32767,32767,-10816,-23,-66,17,24486,7726,5082,-32,12,14
32767,32767,-10918,-149,-75,3,24592,7990,5130,-9,19,17
32767,32767,-10890,-146,-59,1,24662,8128,5274,-27,28,20
32767,32767,-10976,-12,-24,-4,24500,7896,5070,-52,26,20
32767,32767,-10860,146,-9,21,24518,7738,5100,-37,18,5
32767,32767,-10726,117,-42,29,24596,7738,4954,-3,15,13
32767,32767,-10734,-59,-63,11,24562,7998,5004,20,16,22
32767,32767,-10934,6,-31,-9,24566,8160,4966,23,11,30
32767,32767,-10878,121,-24,17,24738,8150,5256,5,13,29
32767,32767,-10706,105,-38,29,24636,8300,5276,-46,18,19
32767,32767,-10734,-14,-65,25,24606,7654,5210,-55,10,14
32767,32767,-10870,-138,-73,-13,24644,7798,5034,-16,14,-2
32767,32767,-11100,-130,-66,-35,24654,7996,5022,-8,15,9
32767,32767,-11104,-61,-27,-33,24684,8086,5094,-8,18,15
32767,32767,-11104,89,-5,8,24562,7936,5158,-24,19,15
32767,32767,-10896,124,-7,38,24452,8064,5158,-11,22,15
32767,32767,-10666,14,-48,24,24536,8236,5132,-25,15,4
32767,32767,-10698,-146,-75,-7,24602,8230,5020,-51,14,4
32767,32767,-10894,-174,-65,-18,24644,7960,5028,-56,15,10
32767,32767,-11020,-20,-18,-10,24614,7738,5098,-60,17,8
32767,32767,-10856,91,2,-20,24582,7816,5040,-31,18,15
32767,32767,-10846,110,-24,-7,24576,7974,5148,-19,17,14
32767,32767,-10720,-17,-58,-14,24548,8132,5100,-18,18,16
32767,32767,-10862,-166,-87,-32,24566,8244,5136,-17,12,12
32767,32767,-10962,-191,-75,-26,24606,8106,5100,-43,6,6
32767,32767,-11022,-58,-37,2,24668,7756,5018,-48,10,10
32767,32767,-11010,117,-23,18,24610,7752,5038,-28,16,20
32767,32767,-10982,112,-38,21,24632,7932,5162,-4,17,23
32767,32767,-10926,-52,-57,3,24654,8402,5096,-13,16,17
32767,32767,-10940,-198,-73,-22,24688,8022,5058,-56,13,0
32767,32767,-10910,-180,-48,-29,24524,7678,5084,-41,16,10
32767,32767,-10924,-23,-26,-16,24568,7820,5086,-11,11,8
32767,32767,-10924,127,-16,7,24696,8040,5184,-10,13,10
32767,32767,-10678,130,-41,27,24684,8142,5204,-34,18,11
32767,32767,-10712,-71,-74,7,24594,8060,5160,-45,24,10
32767,32767,-10934,-187,-86,-28,24578,7932,5068,-48,20,9
32767,32767,-11078,-151,-58,-46,24562,7746,5096,-27,18,12
32767,32767,-11078,8,-21,-22,24516,7934,5102,4,18,16
32767,32767,-10890,144,-8,12,24622,8082,5162,-6,16,10
32767,32767,-10630,117,-48,29,24614,8148,5152,-21,21,13
32767,32767,-10646,-36,-82,22,24630,8142,5160,-28,16,15
32767,32767,-10908,-175,-102,-4,24532,8140,5110,-27,15,4
32767,32767,-11256,-137,-56,-37,24794,8022,5132,-39,11,6
32767,32767,-11298,29,-9,-24,24776,7810,5038,-44,14,15
32767,32767,-11026,147,6,3,24726,7730,5174,-14,23,16
32767,32767,-10816,74,-15,12,24746,7992,5028,1,26,9
32767,32767,-10742,-104,-41,6,24566,8378,5074,1,34,16
32767,32767,-10664,-203,-63,-18,24606,8298,5086,-40,25,11
32767,32767,-10780,-154,-53,-47,24574,7926,5022,-54,18,3
32767,32767,-10810,11,-38,-32,24598,7740,5004,-40,18,9
32767,32767,-10800,129,-40,14,24628,7786,5082,-19,20,6
32767,32767,-10824,57,-65,28,24548,8134,5150,-4,22,6
32767,32767,-10938,-77,-76,20,24568,8264,5080,-27,16,3
32767,32767,-11056,-133,-66,4,24566,8014,5020,-33,15,5
32767,32767,-10894,-73,-52,-15,24666,7968,5088,-24,16,12
32767,32767,-10944,29,-53,-9,24716,7944,5112,-28,20,9
32767,32767,-10940,73,-65,15,24662,7818,5128,-17,22,20
32767,32767,-10986,17,-64,23,24656,8136,5162,-9,22,8
32767,32767,-11028,-85,-57,-5,24666,8256,5104,-16,21,6
32767,32767,-11132,-105,-44,-37,24702,8210,5070,-53,18,2
32767,32767,-11018,-68,-20,-43,24650,7784,5062,-64,17,0
32767,32767,-10870,2,-11,-11,24646,7672,5054,-13,18,5
32767,32767,-10752,35,-13,3,24806,7940,5126,5,21,8
32767,32767,-10800,-8,-31,-8,24674,8394,5098,-5,28,12
32767,32767,-10732,-69,-53,-19,24570,8372,5152,-34,24,6
32767,32767,-10792,-106,-79,-24,24636,7972,5002,-71,18,3
32767,32767,-10858,-64,-78,-1,24592,7626,5024,-49,18,4
32767,32767,-10978,34,-61,39,24668,7660,5122,-12,16,9
32767,32767,-11124,46,-39,11,24698,8046,5070,6,20,13
32767,32767,-11048,-49,-57,-20,24618,8458,5122,-8,25,15
32767,32767,-10788,-156,-58,-30,24608,8294,5072,-46,20,10
32767,32767,-10866,-96,-55,1,24640,7942,5076,-65,20,1
32767,32767,-10906,16,-22,12,24600,7788,5016,-54,19,7
32767,32767,-10868,90,-4,-1,24666,7750,5108,-36,18,8
32767,32767,-10770,71,-15,-14,24782,7900,5162,-14,26,6
32767,32767,-10824,-40,-55,-14,24740,8176,5124,-16,28,11
32767,32767,-10770,-135,-90,-10,24592,8288,5150,-44,26,-1
32767,32767,-10886,-125,-91,4,24608,7836,5068,-61,14,7
32767,32767,-11060,22,-46,13,24592,7766,5004,-30,13,6
32767,32767,-11128,101,-9,-6,24686,7880,5098,-3,11,5
32767,32767,-11170,60,0,-26,24702,8260,5132,-6,21,6
32767,32767,-10896,-44,-38,-20,24610,7978,5244,-32,23,10
32767,32767,-10800,-130,-55,0,24600,7874,5036,-40,23,7
32767,32767,-10852,-120,-53,7,24612,7980,5082,-23,21,10
32767,32767,-10872,-50,-30,-5,24698,8126,5096,-12,16,16
32767,32767,-10882,51,-16,-8,24828,7996,5158,-30,23,15
32767,32767,-10736,68,-30,-10,24644,8008,5180,-27,31,19
32767,32767,-10910,-48,-63,-1,24614,8060,5150,-31,31,12
32767,32767,-10916,-140,-73,3,24632,8002,5130,-38,23,8
32767,32767,-10790,-93,-61,3,24606,7924,5014,-34,20,9
32767,32767,-10966,20,-37,-6,24590,7974,5020,-20,17,7
32767,32767,-10796,57,-51,-10,24602,7958,5108,-22,15,3
32767,32767,-11010,-4,-69,9,24622,8020,5186,-23,20,10
32767,32767,-10552,-76,-56,13,24546,8146,5094,-34,14,4
32767,32767,-11006,-40,-54,14,24616,8132,4942,-36,14,3
32767,32767,-11052,-9,-42,-11,24606,8258,5100,-32,16,10
32767,32767,-10980,28,-38,-33,24722,7960,5068,-56,15,2
32767,32767,-10950,-16,-46,-28,24776,7702,5214,-42,19,8
32767,32767,-10888,-80,-48,-24,24706,7702,5118,-26,18,14
32767,32767,-10872,-100,-56,-18,24722,7954,5146,-2,17,7
32767,32767,-10808,-34,-43,-6,24768,8188,5026,9,15,17
32767,32767,-10940,46,-33,-4,24760,8432,5092,-13,17,7
32767,32767,-11010,7,-36,-33,24742,8010,5130,-58,21,4
32767,32767,-11046,-93,-56,-44,24622,7728,5136,-63,23,2
32767,32767,-10932,-143,-62,-19,24644,7624,5112,-37,21,6
32767,32767,-10726,-24,-59,26,24590,7904,5076,-2,17,10
32767,32767,-10848,71,-49,24,24680,8240,5028,4,14,15
32767,32767,-10994,50,-33,-5,24698,8384,5108,-1,15,15
32767,32767,-11054,-54,-28,-33,24650,8284,5136,-55,18,8
32767,32767,-10912,-130,-45,-57,24586,7792,5000,-79,20,14
32767,32767,-10916,-124,-56,-50,24740,7656,5100,-33,17,10
32767,32767,-10866,-64,-52,-7,24806,7994,5134,-2,19,14
32767,32767,-10836,14,-34,20,24696,8258,5078,-8,21,13
32767,32767,-10838,37,-33,9,24708,8232,5112,-25,19,8
32767,32767,-10802,-2,-53,-8,24750,7948,5096,-46,19,4
32767,32767,-10716,-85,-75,-11,24628,7870,5038,-42,23,7
32767,32767,-10904,-104,-87,-3,24622,7882,5188,-36,21,10
32767,32767,-11130,-91,-65,-16,24702,8104,5080,-20,18,7
32767,32767,-11010,-68,-29,-36,24676,8130,5158,-54,18,3
32767,32767,-10876,-40,7,-40,24578,7756,5098,-55,19,8
32767,32767,-10666,28,-20,-2,24542,7838,5154,-33,15,4
32767,32767,-10618,-8,-42,-9,24736,7880,5180,-14,14,4
32767,32767,-10750,-109,-66,-28,24762,8162,5062,-9,26,6
32767,32767,-10830,-180,-77,-23,24750,8178,5074,-27,28,7
32767,32767,-10790,-182,-60,-30,24714,8042,5030,-44,30,6
32767,32767,-10736,-87,-58,-16,24660,7882,5160,-42,30,8
32767,32767,-10858,-81,-58,-13,24698,7824,5102,-35,28,7
32767,32767,-10666,-133,-62,-29,24622,7952,5202,-16,26,11
32767,32767,-10542,-203,-97,-39,24640,8062,5096,-9,22,12
32767,32767,-10496,-560,-171,-131,24700,8122,5056,-10,18,10
32767,32767,-10660,-773,-158,-233,24760,8050,5138,-43,24,12
32767,32767,-10708,-1005,-120,-280,24694,7922,5160,-53,29,12
32767,32767,-10470,-996,-77,-235,24696,7790,5236,-53,21,6
32767,32767,-9800,-703,-3,-204,24712,7684,5058,-30,22,6
32767,32767,-9176,-263,33,-140,24628,7944,5156,11,27,20
32767,32767,-8812,-28,13,-88,24632,8394,5124,2,30,20
32767,32767,-8610,-139,-52,-90,24752,8070,5140,-40,26,10
32767,32767,-8864,-600,-181,-119,24684,7850,5184,-54,30,10
32767,32767,-9198,-975,-225,-159,24626,7782,5118,-39,24,7
32767,32767,-9302,-1175,-206,-197,24718,7880,5024,-15,17,1
32767,32767,-9114,-909,-132,-186,24636,8134,5092,-1,18,8
32767,32767,-8892,-468,-70,-144,24716,8230,5062,-26,23,9
32767,32767,-8510,-160,-18,-98,24698,8142,5130,-55,28,11
32767,32767,-7934,-151,-47,-51,24554,7708,5098,-48,26,10
32767,32767,-7690,-426,-128,-29,24618,7780,5146,-18,20,8
32767,32767,-7836,-989,-196,-77,24796,8018,5068,-2,25,6
32767,32767,-8100,-1356,-190,-175,24550,8504,5196,-13,30,12
32767,32767,-8068,-1581,-131,-276,24592,8142,5168,-69,23,4
32767,32767,-7702,-1690,-43,-373,24586,7602,4982,-64,19,10
32767,32767,-7044,-1742,27,-441,24606,7730,5062,-17,15,13
32767,32767,-5978,-1746,44,-433,24674,7936,5108,-4,14,15
32767,32767,-5168,-1722,39,-412,24656,8196,5142,-6,13,20
32767,32767,-4618,-1650,38,-393,24696,8182,5142,-26,12,7
32767,32767,-4226,-1458,7,-355,24676,8038,5078,-35,14,5
32767,32767,-3860,-1375,-64,-324,24600,8076,5042,-11,9,10
32767,32767,-3566,-1427,-122,-295,24616,8098,5052,-22,2,-4
32767,32767,-3406,-1520,-125,-278,24568,8154,4932,6,5,26
32767,32767,-3274,-1571,-102,-270,24620,8344,4652,0,5,50
32767,32767,-3118,-1514,-66,-268,24922,7948,5032,-8,21,66
32767,32767,-2870,-1394,-30,-274,25138,8114,5384,-19,50,66
32767,32767,-2380,-1370,-40,-259,24822,8066,5350,-75,68,50
32767,32767,-1706,-1343,-54,-197,24576,7912,5142,-81,53,36
32767,32767,-1374,-1326,-58,-147,24568,7838,5118,-79,34,7
32767,32704,-1194,-1290,-65,-102,24670,7842,4860,-58,30,9
32767,32767,-1148,-1316,-48,-107,24822,7874,4808,-23,34,36
32767,32767,-984,-1493,-30,-143,24718,8006,4930,-3,45,54
32767,32180,-366,-1687,-35,-168,24676,7824,5314,-28,39,59
32767,31122,-66,-1644,-24,-160,24626,7972,5298,-23,51,47
32767,31542,188,-1498,2,-147,24646,8094,5384,-30,52,40
32767,32536,200,-1600,28,-152,24598,8076,5160,-46,52,33
32767,32767,278,-1969,42,-200,24622,8088,4930,-45,61,39
32767,32752,572,-2501,51,-229,24520,8104,4814,-56,54,38
32767,29996,1234,-2621,35,-142,24436,7922,4792,-59,42,47
32767,27492,2212,-2255,31,19,24474,7682,4766,-38,32,70
32767,26110,2732,-1630,45,167,24598,7608,4904,11,39,74
32767,26228,3272,-1080,40,201,24828,7778,4896,57,62,80
32767,28044,3522,-787,27,137,24908,7950,5026,77,102,112
32767,28982,3544,-977,15,96,24882,8172,5206,63,116,92
32767,27860,3580,-1257,18,41,24702,8336,5204,-7,110,50
32767,26494,3674,-1282,3,10,24338,8058,5298,-60,104,53
32767,25824,3788,-1116,9,8,24300,7598,5042,-40,75,72
32767,26336,4106,-969,23,-1,24732,7652,4970,29,68,28
32767,26358,4526,-927,4,-18,24652,8110,5248,41,90,-5
32767,25816,4692,-819,-35,19,24544,8294,5252,-16,87,18
32767,25730,4550,-573,-68,49,24316,8006,5138,-59,67,44
32767,26718,4134,-497,-59,1,24224,7946,5082,-44,51,32
32767,27480,3990,-648,-34,-36,24442,8158,4994,-27,50,20
32767,27256,4172,-894,22,-39,24570,8342,5242,-38,64,10
32767,26264,4566,-1002,37,-38,24514,8434,5266,-93,64,7
32767,26216,5094,-934,-4,48,24254,8282,5248,-135,62,13
32767,27388,5008,-1043,-26,74,24134,8002,5136,-161,52,18
32767,27354,4998,-1343,-59,108,24168,8012,5136,-169,31,0
32767,25858,4986,-1586,-70,174,24372,8054,5126,-165,21,-4
32767,23674,5268,-1584,-88,225,24466,8080,5190,-180,28,3
32767,22500,5462,-1360,-83,263,24416,8058,5204,-204,32,5
32767,22220,5460,-1192,-80,211,24334,7884,5136,-230,23,8
32767,22282,5484,-1170,-46,101,24330,7864,4984,-230,5,1
32767,21658,5252,-1206,-21,11,24454,8024,5400,-238,-10,-5
32767,20724,5552,-1130,23,10,24700,8072,5360,-221,-14,43
32767,20016,5954,-835,25,61,24784,8006,5260,-214,12,100
32767,20384,6274,-528,22,55,24382,8006,5208,-260,40,73
32767,21064,6136,-395,10,-53,24206,8068,5128,-283,26,57
32767,21638,5946,-404,20,-131,24164,7918,5134,-341,6,39
32767,22002,5770,-489,54,-174,24354,7436,5184,-418,-19,23
32767,21520,6058,-655,72,-246,24496,6810,5258,-445,-13,30
32767,20648,6368,-511,35,-145,24394,6144,5098,-391,12,71
32767,20724,6738,-225,9,-34,24364,5816,5120,-309,2,71
32767,21780,6534,-145,-33,-123,24532,6002,5166,-216,1,27
32767,22852,6054,-367,-52,-258,24586,6612,5162,-142,16,10
32767,22572,5830,-695,-38,-238,24556,6760,5202,-115,22,38
32767,20490,5732,-824,-7,-186,24482,6596,5314,-100,35,48
32767,19040,5966,-559,10,-128,24276,6854,5312,-83,35,38
32767,19812,6082,-92,74,-60,24322,7016,5328,-94,16,20
32767,20854,6102,-96,93,-137,24468,7072,5230,-112,1,15
32767,21116,6168,-307,95,-246,24394,6942,5294,-129,0,24
32767,20404,6218,-530,85,-322,24460,6870,5326,-141,5,33
32767,19694,6084,-557,84,-339,24620,6802,5252,-152,-1,32
32767,19486,6154,-446,106,-346,24582,6892,5434,-192,4,44
32767,19520,6384,-248,93,-245,24514,7010,5378,-214,9,78
32767,19838,6476,28,54,-79,24452,6962,5476,-253,7,97
32767,20960,6614,108,38,-72,24472,6942,5318,-249,17,89
32767,21410,6528,-49,7,-129,24440,6854,5306,-281,11,55
32767,20780,6052,-228,-14,-102,24586,6784,5300,-306,-2,40
32767,20030,6242,-262,-2,-69,24544,6500,5328,-345,-3,48
32767,19482,6414,-199,-16,-60,24580,5908,5092,-363,-17,53
32767,19184,6204,-18,-16,-17,24740,5328,5138,-322,-4,21
32767,19800,6198,124,-1,28,24828,4978,5158,-273,14,12
32767,20498,6158,58,8,-9,24896,5080,5128,-166,29,26
32767,20150,6440,-89,-6,-31,24574,5642,5120,-92,65,21
32767,19754,6482,-90,-26,-16,24258,6018,5334,-83,63,24
32767,19732,6552,-8,-49,-17,24094,6084,5382,-88,36,27
32767,20254,6240,37,-50,-32,24254,5956,5252,-111,-10,17
32767,20328,5930,27,-40,-21,24562,5700,5260,-115,-2,3
32767,20200,5766,28,-9,8,24792,5430,5394,-70,24,1
32767,20150,6460,40,-5,19,24728,6190,5378,-29,52,19
32767,20280,6670,40,-27,25,24378,6720,5546,-81,54,24
32767,20424,6384,-24,-53,4,24140,6664,5518,-176,28,25
32767,20404,5932,-104,-47,-29,24300,5754,5200,-205,-10,15
32767,19844,5884,-113,-14,-23,24620,5064,5004,-167,-14,-24
32767,19402,6330,-12,0,5,24836,4976,5156,-97,6,-15
32767,19696,6690,146,-1,35,24720,5662,5196,-39,35,12
32767,20636,6648,161,-36,24,24414,6094,5432,-74,39,3
32767,20856,6242,38,-61,14,24370,5890,5340,-99,23,3
32767,20228,5942,-76,-53,-4,24482,5134,5106,-102,3,15
32767,19514,6354,96,-27,18,24696,4952,5208,-72,9,0
32767,19822,6460,246,-35,50,24684,5280,5200,-42,43,6
32767,20274,6426,327,-41,88,24538,5410,5220,-14,64,28
32767,20872,6280,345,-74,144,24496,5946,5440,19,72,12
32767,20728,6220,266,-102,101,24342,6472,5468,-6,61,10
32767,20818,5978,201,-91,30,24312,5926,5326,-71,11,8
32767,21426,5866,93,-53,11,24542,5456,5204,-67,-8,-9
32767,21054,5856,-95,-7,-17,24686,5294,5230,-57,-2,-12
32767,20166,6382,-18,6,-2,24582,5318,5204,-43,23,12
32767,20652,6580,74,-19,25,24454,5444,5284,-25,23,13
32767,21042,6566,50,-55,13,24476,5776,5400,-31,21,5
32767,21156,6260,-30,-68,4,24544,5648,5240,-39,19,9
32767,21022,5922,-127,-53,-27,24608,5342,5268,-39,13,5
32767,20618,5910,-156,-10,-33,24500,5492,5310,-25,26,11
32767,20272,6104,-109,11,-8,24442,5774,5444,-21,22,7
32767,20132,6572,-13,0,0,24412,5858,5306,-36,20,5
32767,20696,6744,35,-39,-3,24608,5612,5276,-39,11,-3
32767,21062,6470,-15,-72,-9,24674,5422,5128,-31,19,-5
32767,20928,6024,-103,-80,-19,24686,5448,5484,-22,29,1
32767,20600,5834,-123,-45,-14,24448,5728,5438,-20,43,18
32767,20302,6054,-84,-29,-4,24344,5806,5480,-38,26,27
32767,20464,6510,9,-19,2,24438,5728,5236,-39,14,8
32767,20692,6390,9,-35,12,24658,5380,5052,-24,8,-4
32767,20720,6190,-32,-40,-13,24670,5364,5410,-14,28,-2
32767,20560,5980,-53,-32,-29,24554,5638,5370,-8,35,19
32767,20258,6090,-33,-17,-7,24464,5810,5412,-27,31,29
32767,20260,6300,34,-16,9,24370,5734,5266,-25,22,16
32767,20578,6448,68,-33,-2,24552,5602,5258,-25,9,6
32767,20900,6282,39,-55,7,24640,5442,5218,-19,16,-6
32767,20968,6092,-2,-59,11,24536,5588,5280,-7,31,-4
32767,20984,6018,-63,-45,-6,24444,5508,5400,-32,32,6
32767,20684,6120,-100,-29,-8,24524,5554,5204,0,25,-1
32767,20384,6186,-83,-11,-7,24648,5730,5300,9,30,-4
32767,20366,6298,-25,-12,-6,24468,5842,5346,8,44,5
32767,20636,6394,0,-22,-1,24454,5908,5380,-18,35,13
32767,20840,6226,-29,-33,-3,24432,5670,5284,-33,27,12
32767,20526,6310,-72,-48,-2,24526,5388,5200,-28,18,-3
32767,20354,6286,-11,-45,13,24646,5542,5318,-13,39,9
32767,20720,6170,25,-36,8,24586,5758,5416,-10,48,20
32767,20802,6176,-18,-32,-8,24406,5848,5402,-32,52,17
32767,20710,6242,-59,-30,-8,24298,5852,5348,-41,33,18
32767,20644,6314,-95,-31,-19,24276,5740,5200,-52,23,11
32767,20420,6180,-80,-36,-24,24406,5656,5228,-48,14,-7
32767,20528,6206,-32,-27,-16,24572,5582,5238,-33,20,-2
32767,20810,6242,3,-25,3,24504,5522,5232,-33,38,2
32767,20768,6232,-23,-25,3,24350,5560,5464,-27,38,2
32767,20568,6318,-47,-36,4,24328,5688,5278,-32,26,12
32767,20456,6288,-58,-34,-3,24390,5634,5310,-39,12,6
32767,20550,6220,-70,-38,-15,24472,5686,5180,-25,7,0
32767,20320,6260,-53,-40,-9,24516,5606,5260,-23,15,-13
32767,20434,6274,7,-45,3,24448,5738,5334,-26,27,0
32767,20612,6118,14,-35,-9,24440,5628,5340,-36,21,18
32767,20920,6136,-33,-25,-20,24492,5736,5256,-32,22,5
32767,20722,6274,-88,-28,-11,24488,5752,5122,-33,23,10
32767,20470,6340,-81,-31,-8,24472,5516,5208,-29,23,10
32767,20486,6290,-64,-37,-15,24528,5508,5290,-28,18,0
32767,20362,6250,-32,-41,-15,24512,5644,5320,-28,27,4
32767,20558,6236,6,-32,-7,24446,5582,5324,-34,26,1
32767,20804,6198,-22,-37,-12,24448,5714,5334,-32,26,-16
32767,20462,6244,-56,-37,-10,24414,5704,5292,-38,29,1
32767,20312,6404,3,-59,11,24490,5736,5266,-39,21,10
32767,20714,6268,33,-62,7,24402,5686,5304,-38,29,8
32767,21136,6020,-63,-61,-24,24464,5580,5306,-42,22,14
32767,20632,5890,-145,-40,-21,24498,5468,5292,-33,25,-6
32767,20256,5944,-116,-13,-11,24478,5582,5294,-28,29,6
32767,20044,6234,-20,5,-1,24456,5622,5222,-24,33,18
32767,20476,6536,62,-10,7,24408,5652,5338,-24,21,5
32767,20844,6562,-1,-55,-7,24524,5788,5360,-25,12,-3
32767,20646,6454,-59,-81,-13,24544,5648,5298,-38,10,2
32767,20426,6102,-64,-88,-16,24690,5536,5312,-32,9,3
32767,20398,5892,-17,-68,-17,24660,5638,5340,-30,28,13
32767,20548,5954,28,-34,-7,24490,5660,5280,-34,37,29
32767,20854,6112,14,-13,2,24442,5670,5244,-32,31,16
32767,20346,6418,-39,-44,7,24458,5726,5338,-30,26,5
32767,20470,6348,-12,-60,-2,24402,5620,5296,-36,26,10
32767,20284,6244,6,-59,-12,24358,5560,5286,-32,23,13
32767,20628,6160,30,-51,-18,24352,5558,5282,-35,16,11
32767,20812,6182,5,-44,-21,24494,5614,5310,-32,16,9
32767,20924,6158,-42,-33,-17,24482,5584,5242,-32,22,9
32767,20662,6166,-103,-38,-17,24388,5618,5286,-23,29,15
32767,20140,6128,-57,-30,-5,24396,5672,5294,-21,20,15
32767,20298,6242,15,-32,-9,24504,5684,5278,-28,11,-1
32767,20590,6412,63,-35,-15,24540,5636,5294,-30,19,11
32767,21176,6376,27,-48,-14,24540,5580,5258,-32,23,16
32767,21056,6234,-72,-65,-10,24368,5692,5278,-19,29,15
32767,20602,6100,-104,-61,-4,24302,5708,5336,-21,24,10
32767,20308,6060,-61,-48,0,24302,5632,5342,-33,4,7
32767,20408,6184,0,-33,5,24564,5600,5256,-30,2,-2
32767,20614,6232,-6,-20,-6,24554,5564,5256,-31,14,14
32767,20744,6326,-45,-23,-18,24630,5600,5470,-28,13,11
32767,20656,6344,-86,-30,-10,24546,5776,5398,-38,21,2
32767,20298,6274,-92,-30,-4,24430,5740,5308,-51,31,28
32767,19976,6178,-44,-39,-11,24424,5444,5232,-46,27,28
32767,20210,6172,51,-28,-14,24404,5538,5160,-27,33,7
32767,20714,6356,80,-32,-16,24468,5586,5240,-18,34,17
32767,21062,6368,38,-42,-18,24378,5638,5300,-21,33,10
32767,21080,6304,-43,-70,-7,24352,5648,5308,-30,16,6
32767,20752,6204,-71,-73,10,24460,5592,5420,-31,12,2
32767,20402,6008,-45,-59,15,24414,5590,5344,-26,11,14
32767,20494,5890,-7,-38,1,24496,5668,5178,-22,11,-2
32767,20658,6034,-32,-18,-6,24464,5688,5286,-22,20,0
32767,20348,6200,-63,-4,-7,24550,5600,5268,-32,12,5
32767,20254,6372,-44,-9,-15,24586,5528,5300,-26,25,6
32767,20602,6528,-7,-45,-14,24522,5600,5332,-25,30,10
32767,20656,6374,2,-81,-13,24484,5812,5352,-25,31,16
32767,20778,6090,24,-81,-4,24362,5716,5290,-36,21,5
32767,21032,5850,7,-56,-3,24470,5592,5306,-38,8,-9
32767,20880,5938,-71,-27,-14,24494,5472,5258,-39,15,-3
32767,20476,6174,-103,-7,-15,24504,5510,5178,-32,21,7
32767,20160,6328,-60,-9,-4,24454,5506,5340,-25,32,12
32767,20284,6482,23,-22,3,24488,5654,5196,-18,31,9
32767,20956,6340,44,-49,-5,24422,5680,5260,-23,29,7
32767,21128,6282,-27,-68,0,24372,5640,5344,-29,22,5
32767,20814,6164,-81,-64,8,24468,5612,5340,-24,13,9
32767,20652,5964,-81,-51,0,24516,5626,5216,-27,19,7
32767,20396,5920,-55,-14,3,24520,5790,5344,-21,24,17
32767,20140,6292,-12,1,11,24558,5750,5330,-31,23,12
32767,20206,6638,38,-17,8,24542,5784,5282,-42,26,3
32767,20836,6550,32,-51,-7,24460,5570,5340,-49,29,11
32767,20898,6072,-75,-78,-20,24522,5344,5276,-47,28,13
32767,20518,5876,-79,-62,-15,24456,5412,5248,-28,29,6
32767,20366,6012,-1,-35,8,24400,5578,5230,-19,29,17
32767,20620,6222,64,-22,17,24308,5628,5380,-22,28,23
32767,20874,6440,39,-34,-2,24342,5670,5210,-22,17,18
32767,20894,6344,-22,-51,-5,24472,5492,5362,-27,4,2
32767,20714,6258,-68,-61,1,24408,5572,5298,-22,11,10
32767,20508,5996,-67,-59,-21,24466,5718,5270,-22,11,28
32767,20592,6032,-27,-32,-9,24414,5890,5386,-30,13,21
32767,20594,6246,-14,-31,14,24528,5696,5378,-43,5,11
32767,20540,6334,-15,-31,8,24662,5458,5248,-51,6,-1
32767,20706,6368,-37,-48,-9,24642,5436,5308,-35,26,15
32767,20770,6274,-86,-51,-13,24560,5404,5226,-26,32,25
32767,20456,6136,-116,-49,-23,24518,5530,5294,-20,25,16
32767,20218,6046,-55,-39,-20,24504,5690,5280,-20,21,15
32767,20436,6098,45,-23,0,24474,5694,5334,-26,22,19
32767,21012,6336,73,-34,21,24436,5752,5366,-24,19,16
32767,21228,6378,5,-45,32,24420,5790,5270,-38,16,8
32767,20544,6100,-126,-52,-11,24546,5492,5316,-44,10,0
32767,20540,5864,-99,-24,-8,24520,5480,5282,-35,30,7
32767,20278,6144,-72,8,13,24438,5482,5312,-24,35,22
32767,20072,6526,-8,-12,46,24386,5642,5344,-22,33,25
32767,20334,6508,44,-30,62,24358,5714,5400,-31,24,22
32767,20602,6244,70,-50,74,24402,5636,5386,-38,18,13
32767,20714,5878,40,-26,19,24396,5604,5282,-30,19,9
32767,20554,5698,-2,17,-19,24486,5580,5270,-30,19,12
32767,20390,5840,7,61,-13,24528,5644,5134,-27,25,4
32767,20660,6424,38,66,-23,24512,5460,5310,-32,25,5
32767,21198,6676,-10,19,-16,24466,5416,5306,-30,23,3
32767,20984,6576,-64,-28,4,24488,5526,5238,-30,22,10
32767,20764,6336,-72,-51,13,24412,5640,5312,-24,19,17
32767,20838,6176,-67,-52,-1,24492,5692,5254,-17,12,0
32767,20782,6084,-77,-37,-6,24530,5730,5240,-23,15,-6
32767,20640,6068,-96,-24,-5,24600,5642,5330,-16,18,-1
32767,20370,6410,-104,-28,-7,24514,5604,5352,-31,22,1
32767,20162,6408,-73,-42,-5,24564,5608,5330,-30,16,12
32767,20268,6266,0,-60,-16,24502,5562,5258,-22,13,12
32767,20634,6242,0,-64,-16,24494,5626,5294,-21,10,3
32767,20730,6040,-25,-47,-20,24578,5702,5248,-22,16,5
32767,20734,5962,-36,-25,-30,24592,5542,5346,-33,25,4
32767,20662,5940,-15,1,-18,24538,5598,5288,-29,34,12
32767,20502,6192,22,14,4,24500,5490,5398,-35,23,9
32767,20372,6454,79,-4,21,24440,5624,5280,-26,23,9
32767,20858,6570,124,-40,24,24382,5618,5232,-31,20,18
32767,20996,6236,41,-54,9,24396,5614,5392,-24,25,14
32767,20794,6008,-44,-47,-23,24476,5618,5258,-44,23,12
32767,20632,5902,-64,-19,-37,24598,5608,5350,-37,26,9
32767,20700,6150,-61,-13,-31,24540,5600,5340,-30,39,10
32767,20512,6372,-37,-23,-12,24466,5750,5378,-25,30,11
32767,20524,6514,5,-55,1,24414,5744,5344,-37,24,1
32767,20702,6376,15,-83,3,24466,5694,5282,-38,24,2
32767,21000,6010,-6,-72,-17,24552,5426,5240,-44,22,5
32767,20978,5768,-64,-33,-36,24638,5278,5296,-33,28,1
32767,20762,5970,-104,3,-46,24700,5398,5256,-28,41,-3
32767,20422,6370,-77,3,-26,24408,5518,5302,-27,57,27
32767,20402,6650,14,-18,7,24374,5676,5362,-5,43,22
32767,20858,6426,28,-56,0,24388,5918,5228,-13,32,6
32767,21084,6226,-53,-70,-14,24560,5652,5222,-21,15,4
32767,20716,6188,-117,-83,-20,24658,5384,5314,-27,34,6
32767,20486,6120,-64,-64,-12,24622,5482,5386,-3,59,12
32767,20610,5938,-4,-42,-4,24352,5788,5396,-12,78,35
32767,20876,5926,6,-14,1,24142,5860,5452,-18,61,39
32767,20884,6242,-60,-6,6,24190,5940,5300,-32,36,8
32767,20406,6466,-126,-25,-7,24374,5794,5368,-45,18,12
32767,20132,6428,-81,-50,-17,24378,5550,5350,-52,20,3
32767,20334,6344,3,-69,-20,24346,5436,5290,-43,27,-9
32767,20914,6070,49,-64,-15,24304,5378,5376,-36,21,-2
32767,21088,5842,-25,-24,-13,24274,5480,5240,-25,30,5
32767,20850,6142,-71,0,2,24318,5472,5298,-23,20,5
32767,20432,6484,-75,3,18,24476,5540,5324,-10,15,4
32767,20382,6630,-15,-33,29,24558,5674,5388,-11,25,12
32767,20656,6456,0,-67,7,24518,5880,5268,-12,26,0
32767,20602,6066,-18,-75,-13,24394,5778,5280,-29,32,2
32767,20470,5834,2,-51,-10,24340,5538,5156,-28,28,4
32767,20704,5954,32,-23,-4,24450,5450,5384,-18,24,8
32767,21048,6284,-41,-12,-18,24568,5746,5346,-15,28,13
32767,20688,6394,-85,-28,-12,24390,5798,5336,-28,33,15
32767,20414,6304,-45,-38,11,24314,5656,5302,-42,21,4
32767,20448,6254,45,-47,14,24330,5534,5234,-42,12,-6
32767,21082,6360,61,-55,-2,24370,5322,5234,-30,16,-5
32767,21272,6430,-42,-66,1,24372,5484,5218,-25,39,7
32767,20842,6272,-126,-74,3,24328,5616,5376,-19,39,16
32767,20172,6036,-86,-59,-7,24250,5760,5282,-22,39,6
32767,20576,6092,63,-10,3,24334,5774,5312,-34,13,1
32767,20898,6348,20,-7,4,24350,5700,5202,-32,11,-4
32767,20732,6472,-32,-25,2,24392,5470,5280,-33,12,-10
32767,20638,6394,-63,-58,-7,24466,5470,5340,-17,18,2
32767,20600,6110,-67,-71,-7,24506,5648,5370,-13,24,13
32767,20638,5940,-38,-63,1,24530,5830,5362,-26,17,10
32767,20680,5854,-6,-31,-1,24558,5754,5284,-34,16,5
32767,20790,6072,-16,-7,-12,24458,5624,5328,-40,18,-2
32767,20738,6412,-49,-10,-27,24350,5642,5290,-36,28,9
32767,20748,6612,-60,-42,-22,24294,5568,5314,-43,22,1
32767,20682,6438,-54,-80,-8,24398,5560,5182,-39,17,8
32767,20666,6058,-29,-91,8,24600,5394,5330,-42,21,6
32767,20614,5660,7,-42,16,24418,5494,5242,-30,42,13
32767,20698,5890,-15,-6,0,24312,5520,5360,-19,38,22
32767,20492,6312,-60,15,-15,24254,5666,5334,-18,29,7
32767,20414,6540,-75,-4,-25,24332,5796,5312,-27,12,5
32767,20392,6486,-59,-40,-26,24430,5670,5274,-38,11,11
32767,20578,6342,1,-56,-17,24466,5490,5310,-37,17,0
32767,20710,5994,42,-57,-4,24458,5440,5232,-25,27,13
32767,21010,6164,37,-43,-6,24434,5702,5362,-23,28,7
32767,21080,6274,-63,-41,-21,24260,5816,5362,-28,33,16
32767,20828,6254,-115,-50,-16,24356,5556,5250,-36,17,8
32767,20432,6212,-82,-57,13,24444,5478,5182,-29,12,-12
32767,20194,6176,10,-59,27,24494,5530,5324,-30,19,-5
32767,20584,6116,77,-54,24,24434,5604,5358,-25,38,19
32767,20892,6064,47,-41,14,24308,5672,5302,-26,37,16
32767,20994,6238,-57,-39,-9,24302,5700,5344,-23,25,8
32767,20526,6192,-128,-46,-24,24366,5694,5292,-26,4,1
32767,20220,6150,-90,-44,-26,24450,5766,5412,-36,12,-1
32767,20292,6072,9,-31,-5,24352,5666,5362,-45,13,4
32767,20896,6056,56,-16,-5,24210,5562,5338,-43,10,7
32767,21120,6344,-20,-23,-10,24306,5534,5222,-35,-2,5
32767,20698,6520,-87,-42,1,24434,5572,5274,-29,-2,-3
32767,20230,6366,-69,-64,2,24554,5420,5338,-39,3,8
32767,20382,6064,1,-63,-12,24502,5402,5350,-32,18,19
32767,20994,5874,-12,-38,-23,24344,5532,5332,-25,20,21
32767,20790,5906,-73,-6,-24,24350,5632,5336,-33,19,20
32767,20468,6178,-73,9,-18,24362,5670,5248,-29,10,15
32767,20250,6526,-26,-5,-11,24514,5634,5294,-17,9,5
32767,20598,6528,29,-33,-14,24544,5694,5262,-11,14,5
32767,20786,6342,26,-54,-14,24542,5760,5354,-23,18,-2
32767,21004,6080,5,-56,-9,24358,5698,5306,-46,29,8
32767,21136,6086,-56,-49,-9,24322,5504,5358,-47,26,24
32767,20552,6216,-100,-50,7,24396,5530,5256,-36,22,16
32767,20330,6336,-68,-52,9,24394,5634,5220,-27,23,10
32767,20400,6250,-32,-60,-12,24462,5624,5242,-29,18,8
32767,20518,6236,-4,-58,-19,24462,5504,5386,-37,25,7
32767,20698,6108,26,-56,0,24440,5412,5326,-36,28,13
32767,20728,6090,44,-46,10,24508,5376,5304,-28,34,14
32767,20784,6348,39,-48,13,24402,5580,5330,-21,37,13
32767,20806,6562,21,-70,13,24392,5722,5264,-16,18,12
32767,20664,6328,-23,-108,18,24460,5814,5256,-24,7,-3
32767,20506,6044,-24,-117,11,24466,5738,5426,-34,10,0
32767,20358,5910,21,-100,9,24512,5520,5346,-45,11,14
32767,20346,5922,121,-76,27,24538,5420,5252,-41,19,9
32767,20608,6108,219,-64,45,24494,5524,5250,-26,34,7
32767,20498,6348,288,-77,59,24360,5698,5332,-33,37,16
32767,20222,6490,429,-125,90,24360,5630,5312,-32,27,17
32767,21136,6516,564,-147,117,24492,5464,5310,-38,14,-1
32767,22626,6236,362,-164,110,24532,5506,5302,-31,17,1
32767,22312,5948,100,-171,74,24498,5582,5296,-29,34,15
32767,21610,5934,9,-157,78,24374,5616,5340,-26,36,18
32767,21204,5904,67,-141,95,24326,5678,5242,-28,27,9
32767,21278,6018,137,-124,95,24494,5572,5330,-33,20,4
32767,21266,6072,113,-139,90,24536,5466,5302,-28,29,6
32767,21192,6146,113,-118,59,24402,5598,5274,-14,38,18
32767,21234,6134,163,-130,67,24334,5772,5336,-24,32,16
32767,21220,6232,233,-153,88,24416,5768,5298,-43,22,5
32767,21222,6284,339,-182,101,24444,5534,5220,-45,34,8
32767,21700,6140,425,-193,88,24416,5426,5244,-38,35,13
32767,22512,5908,391,-177,68,24500,5440,5276,-27,39,4
32767,22812,5742,173,-135,46,24392,5714,5378,-33,51,14
32767,21854,5872,124,-117,71,24252,5648,5360,-41,50,36
32767,21336,6236,263,-134,90,24202,5444,5330,-41,27,13
32767,21546,6242,439,-150,74,24412,5518,5182,-27,7,-7
32767,22006,5994,533,-159,63,24514,5468,5240,-22,16,3
32767,22414,5814,551,-146,60,24470,5716,5322,-21,32,9
32767,22612,5712,522,-136,58,24370,5784,5278,-28,33,13
32767,22198,5906,544,-150,56,24282,5618,5306,-42,29,6
32767,22094,6134,764,-179,80,24376,5440,5300,-35,16,5
32767,23486,5732,876,-196,68,24426,5430,5284,-20,16,4
32767,25528,5240,641,-169,10,24328,5650,5236,-9,22,5
32767,25406,5066,215,-124,-21,24502,5626,5456,-28,7,0
32767,23774,5186,34,-86,13,24508,5612,5292,-36,25,13
32767,22444,5696,189,-95,56,24380,5478,5362,-43,30,18
32767,22160,6020,586,-132,93,24286,5528,5166,-23,42,10
32767,24040,5828,861,-164,101,24224,5582,5214,-14,33,5
32767,25886,5278,573,-169,63,24364,5480,5232,-4,27,-3
32767,24870,5234,295,-166,69,24374,5472,5100,23,39,-3
32767,23358,5512,287,-173,75,24308,5332,5274,58,43,-3
32767,22422,5590,579,-190,78,24344,5612,5460,66,45,-14
32767,23210,5478,988,-218,91,24312,6024,5428,18,32,8
32767,25926,4920,1068,-223,65,24302,5970,5418,-25,27,17
32767,26664,4500,787,-216,39,24334,5650,5232,-30,14,7
32767,23238,4750,801,-262,99,24472,5634,5264,-20,9,-11
32767,21406,4930,1546,-283,182,24512,5724,5284,-12,25,-3
32767,24170,4198,2317,-286,171,24494,5750,5358,-29,34,9
32767,29050,3608,2324,-225,71,24348,5634,5276,-25,37,11
32767,31984,3434,1464,-157,-33,24202,5356,5314,-27,30,3
32767,30602,3486,490,-139,-52,24408,5406,5202,1,16,1
32767,26834,3620,152,-127,-48,24342,5526,5176,28,27,3
32767,23944,3612,528,-125,-64,24326,5660,5358,48,30,7
32767,26078,3664,1511,-127,-16,24222,5872,5400,41,27,7
32767,29998,3150,1608,-118,24,24264,5946,5168,19,9,0
32767,31610,2734,1190,-125,6,24204,5674,5598,17,11,-5
32767,30346,2690,694,-161,-22,24386,5690,5094,15,5,5
32767,28002,2984,673,-141,22,24452,5624,5246,46,0,6
32767,27932,2980,986,-181,66,24458,5942,5344,64,21,-7
32767,29012,2630,1222,-216,61,24266,5928,5348,48,15,11
32767,30254,2208,1249,-232,97,24218,5810,5298,34,-1,11
32767,29022,1826,1199,-251,141,24316,5658,5208,37,-10,1
32767,28948,1552,1451,-246,144,24428,5616,5108,60,-10,-10
32767,31028,1056,1538,-263,117,24518,5720,5240,73,5,-3
32767,32767,440,1216,-239,80,24430,5896,5318,74,3,4
32767,32767,308,649,-206,25,24404,6110,5464,43,-9,0
32767,30874,450,361,-169,13,24424,6172,5294,13,-8,26
32767,29738,398,452,-133,-9,24574,5942,5296,9,-8,15
32767,29950,348,744,-101,3,24652,6058,5258,42,14,0
32767,30680,270,1094,-74,51,24478,6156,5284,55,37,5
32767,31514,18,1251,-67,53,24368,6272,5458,34,29,5
32767,32732,-196,1225,-88,47,24246,6202,5344,6,13,14
32767,32767,-532,977,-111,35,24278,5868,5280,-10,-11,16
32767,32767,-672,625,-137,40,24466,5722,5180,12,-16,4
32767,31310,-780,606,-137,121,24468,5998,5208,66,8,0
32767,29842,-1018,1029,-125,185,24360,6134,5272,58,3,-6
32767,31032,-1550,1535,-128,196,24388,6210,5510,42,-13,-10
32767,32767,-2180,1541,-103,148,24472,6108,5214,29,-17,11
32767,32767,-2442,954,-63,83,24662,5716,5030,70,-8,20
32767,32767,-2350,717,-57,38,24676,5800,5204,161,28,3
32767,32026,-2514,908,-66,114,24562,6462,5246,215,64,-19
32767,32284,-2806,1281,-81,198,24290,6954,5484,140,52,-34
32767,32767,-3232,1475,-89,195,24342,6764,5318,45,14,-7
32767,32767,-3742,1318,-95,152,24734,5748,5406,31,-4,27
32767,32767,-4142,1008,-84,122,24894,5808,5178,86,29,14
32767,32767,-4332,768,-64,109,24824,6290,5170,152,78,12
32767,32767,-4488,835,-35,116,24532,6948,5268,152,98,-5
32767,32767,-4490,975,-21,111,24248,7092,5464,92,85,-14
32767,32767,-4790,1047,-11,102,24078,6782,5330,40,50,13
32767,32767,-5114,1115,5,128,24112,6210,5304,35,23,28
32767,32767,-5594,1174,6,155,24178,6078,5216,92,5,1
32767,32767,-5802,1168,9,156,24334,6854,5380,139,12,-36
32767,32767,-6042,1105,0,161,24300,7162,5344,103,6,-22
32767,32767,-6278,963,-27,154,24214,6914,5324,50,-5,7
32767,32767,-6720,878,-11,125,24364,6344,5298,58,-22,11
32767,32767,-6948,931,17,110,24626,6376,5176,111,-11,-8
32767,32767,-7084,1152,28,135,24656,6808,5108,126,8,-29
32767,32767,-7490,1225,-1,147,24640,7094,5292,76,13,-16
32767,32767,-7686,1084,-9,124,24552,6882,5092,37,16,18
32767,32767,-7914,962,-13,125,24532,6578,5230,54,26,21
32767,32767,-8412,870,-42,161,24520,6890,5298,81,36,14
32767,32767,-8616,927,-17,159,24520,7098,5408,89,34,14
32767,32767,-8902,989,-33,139,24502,7154,5426,92,49,16
32767,32767,-9182,924,-49,120,24310,7178,5220,78,45,11
32767,32767,-9406,775,-50,103,24136,7168,5132,65,32,0
32767,32767,-9356,655,-78,108,24248,7182,5192,29,4,-11
32767,32767,-9406,587,-122,138,24584,7072,5242,1,-2,-4
32767,32767,-9660,614,-136,162,24660,6802,5514,30,20,23
32767,32767,-10134,651,-162,164,24486,7040,5398,78,40,20
32767,32767,-10422,691,-159,151,24294,7514,5196,79,36,-2
32767,32767,-10626,746,-146,137,24392,7654,4888,4,19,-6
32767,32767,-10806,704,-155,150,24314,6846,5398,-25,9,23
32767,32767,-11290,628,-162,137,24360,6546,5248,-9,6,39
32767,32767,-11558,544,-155,118,24530,6628,5526,80,2,17
32767,32767,-11792,336,-143,72,24596,7452,5356,122,18,-21
32767,32767,-11854,75,-110,2,24424,7954,5264,36,14,-22
32767,32767,-11698,142,-38,-4,24310,7652,5096,-54,7,-18
32767,32767,-11670,336,4,18,24274,7196,5010,-86,-6,-16
32767,32767,-11710,443,38,7,24444,6880,5214,-64,-8,-20
32767,32767,-11554,401,50,-3,24574,6884,5216,-42,-9,-25
32767,32767,-11300,332,41,3,24504,7018,5208,-1,-12,-23
32767,32767,-11266,305,33,16,24398,7112,5262,2,-9,-23
32767,32767,-11506,316,-35,18,24406,7102,5344,-17,-11,-19
32767,32767,-12252,7,-153,-39,24454,7130,5256,-17,-16,-26
32767,32767,-12326,88,-100,-27,24570,7250,5134,-7,-14,-29
32767,32767,-12214,340,-58,-28,24552,7194,5274,-5,-10,-33
32767,32767,-12162,430,-55,-53,24566,7326,5148,-13,-24,-43
32767,32767,-12290,185,-70,-111,24474,7180,5330,-38,-30,-47
32767,32767,-12682,-126,-99,-156,24588,6898,5252,-55,-33,-53
32767,32767,-13048,-300,-90,-146,24686,6870,5224,-14,-24,-57
32767,32767,-13256,-350,-23,-109,24658,7034,5098,59,-8,-48
32767,32767,-12784,-271,44,-64,24664,7150,5266,64,-7,-48
32767,32767,-12094,5,96,-18,24632,7142,5054,59,6,-47
32767,32767,-11620,98,76,-24,24602,7178,5272,76,5,-46
32767,32767,-11468,-19,15,-69,24618,7326,5206,62,8,-58
32767,32767,-11724,-204,-52,-92,24506,7480,5144,67,4,-63
32767,32767,-11910,-277,-100,-66,24518,7564,5214,68,-10,-66
32767,32767,-11976,-113,-90,-15,24518,7432,5232,42,-17,-71
32767,32767,-12284,129,-52,21,24554,7258,5108,55,-23,-67
32767,32767,-12344,7,-61,-21,24614,7330,5114,98,-26,-55
32767,32767,-12398,-190,-65,-62,24612,7450,5204,104,-26,-52
32767,32767,-12332,-309,-48,-78,24696,7454,5102,109,-25,-59
32767,32767,-12180,-338,-31,-90,24758,7124,5428,122,-23,-74
32767,32767,-12080,-271,1,-103,24718,7498,4790,212,-20,-81
32767,32767,-11642,-153,10,-93,24534,7848,5156,194,-6,-49
32767,32767,-11564,-61,-5,-76,24728,7912,4968,192,-10,-30
32767,32767,-11454,-8,-40,-32,24722,8242,5082,163,8,-64
32767,32767,-11504,1,-65,-3,24672,8348,4900,131,8,-23
32767,32767,-11850,-54,-79,-7,24822,8152,5110,62,20,-6
32767,32767,-12000,-96,-68,-25,24830,8102,5196,31,36,-4
32767,32767,-12106,-86,-47,-34,24636,7978,5168,7,42,-6
32767,32767,-12054,-25,-43,-31,24558,7896,5124,-2,35,-19
32767,32767,-11874,-17,-33,-27,24698,7486,5234,16,27,-20
32767,32767,-11756,-108,-48,-22,25200,6378,4620,186,18,3
32767,32767,-11714,-217,-51,-50,24022,8150,5512,201,47,18
32767,32767,-11724,-300,-61,-81,24572,8700,5070,214,17,-8
32767,32767,-11744,-230,-38,-78,24870,8876,5052,114,23,3
32767,32767,-11694,-95,-21,-53,24776,8342,5198,12,27,-14
32767,32767,-11434,91,-17,-4,24522,7810,5156,-8,31,-22
32767,32767,-11366,144,-35,27,24342,7756,5098,60,22,-23
32767,32767,-11406,0,-62,12,24486,8056,5078,129,0,-34
32767,32767,-11606,-201,-90,-27,24664,8542,4780,135,-1,-19
32767,32767,-11640,-149,-87,-25,24736,8936,4880,112,6,27
32767,32767,-11784,-2,-70,-8,24806,9172,4954,45,17,42
32767,32767,-11872,81,-43,-4,24790,8842,5144,-37,24,36
32767,32767,-11750,51,-24,-1,24764,8256,5200,-102,31,11
32767,32767,-11732,-66,-27,-12,24560,8214,5078,-80,29,2
32767,32767,-11458,-188,-44,-38,24600,8010,5028,-72,21,-7
32767,32767,-11482,-230,-60,-50,24684,8088,4954,-47,21,-2
32767,32767,-11566,-162,-42,-39,24746,8232,4934,-28,27,20
32767,32767,-11454,-16,-20,-17,24720,8142,5200,-40,27,19
32767,32767,-11396,79,-17,-2,24696,8070,5104,-27,36,1
32767,32767,-11378,34,-29,-9,24598,8134,5046,-11,28,5
32767,32767,-11368,-68,-62,-15,24564,8474,5044,4,25,-8
32767,32767,-11530,-147,-87,-12,24658,8700,5110,-14,23,4
32767,32767,-11626,-97,-59,4,24764,8592,5042,-40,27,5
32767,32767,-11722,-13,-31,7,24776,8332,5102,-51,34,22
32767,32767,-11582,-9,-17,-34,24642,8218,5020,-53,40,27
32767,32767,-11412,-63,-32,-37,24632,8078,5054,-51,40,27
32767,32767,-11446,-105,-48,-20,24618,8082,5046,-34,40,25
32767,32767,-11438,-144,-46,-20,24620,8214,5072,-24,37,20
32767,32767,-11488,-136,-28,-31,24672,8254,5078,-37,36,8
32767,32767,-11442,-66,-16,-33,24656,8130,5032,-34,26,6
32767,32767,-11412,12,-13,-33,24658,8166,5008,-19,22,-3
32767,32767,-11240,24,-41,-1,24624,8226,5066,-5,22,6
32767,32767,-11162,-57,-64,24,24574,8448,5082,-6,30,7
32767,32767,-11354,-130,-74,-7,24522,8580,5176,-23,33,8
32767,32767,-11494,-131,-64,-34,24546,8368,5056,-53,30,8
32767,32767,-11534,-69,-43,-38,24546,8260,5068,-50,33,8
32767,32767,-11512,22,-27,-21,24624,8212,4946,-44,28,14
32767,32767,-11354,31,-26,-10,24586,8110,5162,-38,35,18
32767,32767,-11316,-42,-26,-16,24652,8322,5082,-25,31,21
32767,32767,-11168,-159,-62,-44,24676,8160,5192,-40,31,11
32767,32767,-11250,-183,-64,-46,24542,8438,5098,-40,36,2
32767,32767,-11392,-161,-60,-39,24610,8192,5068,-54,20,1
32767,32767,-11328,-83,-31,-26,24688,7996,4972,-37,18,-12
32767,32767,-11228,58,-14,3,24716,8036,4934,-10,20,6
32767,32767,-11236,90,-16,5,24556,8364,5078,-1,29,10
32767,32767,-11190,-3,-42,-22,24638,8482,5134,-29,28,11
32767,32767,-11260,-222,-71,-48,24634,8246,5070,-55,27,3
32767,32767,-11170,-140,-57,-29,24594,8226,5014,-39,30,9
32767,32767,-11344,9,-37,-12,24520,8378,4994,-28,28,12
32767,32767,-11424,68,-19,-13,24610,8444,4978,-37,23,10
32767,32767,-11272,-12,-18,-24,24676,8288,5058,-59,25,20
32767,32767,-11058,-145,-46,-39,24622,8044,5180,-72,29,16
32767,32767,-11148,-190,-69,-46,24574,7904,5126,-51,32,16
32767,32767,-11136,-146,-58,-32,24646,8162,5010,-15,28,13
32767,32767,-11242,-71,-23,-30,24612,8366,5078,-21,29,7
32767,32767,-11212,19,-6,-23,24514,8356,5006,-23,24,9
32767,32767,-10908,45,-24,-9,24576,8144,5178,-40,22,6
32767,32767,-10960,-35,-57,-7,24554,8080,5002,-41,23,12
32767,32767,-10948,-127,-70,-12,24564,8186,5038,-20,20,16
32767,32767,-11158,-154,-74,-16,24680,8412,5030,-10,22,9
32767,32767,-11252,-62,-35,-31,24674,8500,5052,-20,26,9
32767,32767,-11112,69,-10,-17,24574,8340,5018,-57,32,18
32767,32767,-11194,123,-9,3,24496,8058,5098,-70,30,11
32767,32767,-10944,4,-38,-1,24512,8024,5088,-44,29,11
32767,32767,-10916,-174,-77,-17,24536,8118,5010,-26,22,8
32767,32767,-10920,-242,-75,-31,24608,8274,5140,-20,20,8
32767,32767,-11100,-119,-51,-37,24596,8372,5154,-30,21,4
32767,32767,-11180,45,-23,-21,24648,8242,5094,-55,23,5
32767,32767,-11034,129,-13,5,24642,7998,5026,-50,25,11
32767,32767,-11040,26,-41,5,24580,8034,5028,-18,30,22
32767,32767,-10950,-132,-60,-11,24612,8250,5130,-7,35,10
32767,32767,-11022,-214,-76,-40,24594,8392,5052,-17,34,8
32767,32767,-11060,-174,-62,-55,24540,8304,4954,-37,35,6
32767,32767,-11054,-23,-33,-31,24436,8264,5060,-39,32,11
32767,32767,-11044,113,-15,-12,24586,8266,5084,-30,28,7
32767,32767,-10992,28,-42,-16,24576,8266,5140,-41,30,9
32767,32767,-11092,-171,-77,-34,24580,8122,5108,-41,29,14
32767,32767,-11080,-330,-66,-66,24588,8108,5108,-31,35,5
32767,32767,-10998,-378,-32,-94,24524,8380,5126,-31,37,13
32767,32767,-10814,-210,-16,-75,24600,8374,5146,-52,31,2
32767,32767,-10842,-17,5,-64,24594,8266,4968,-46,34,4
32767,32767,-10488,103,-12,-33,24642,8092,5078,-38,32,6
32767,32767,-10510,66,-34,3,24614,8198,5100,-36,36,2
32767,32767,-10602,-125,-73,-11,24494,8208,5136,-44,37,11
32767,32767,-10864,-172,-81,-29,24508,8082,5040,-52,29,-1
32767,32767,-11022,-65,-67,-2,24476,8208,4972,-40,29,1
32767,32767,-10986,70,-46,18,24582,8446,5090,-32,29,7
32767,32767,-10922,67,-43,7,24566,8320,5102,-58,32,5
32767,32767,-10820,-43,-35,-8,24520,8026,5032,-74,36,8
32767,32767,-10780,-157,-33,-18,24406,7864,5064,-59,34,11
32767,32767,-10758,-157,-31,-33,24474,7884,5034,-25,30,15
32767,32767,-10716,-19,-17,-15,24524,8306,5126,-12,29,14
32767,32767,-10536,69,-38,5,24510,8468,5080,-24,24,7
32767,32767,-10398,53,-70,21,24538,8190,5118,-63,20,-2
32767,32767,-10660,-42,-88,18,24554,7852,4994,-37,26,15
32767,32767,-10944,-114,-84,-10,24580,8118,5124,-24,29,15
32767,32767,-11012,-103,-47,-38,24646,8204,5166,-38,33,15
32767,32767,-11040,-32,-9,-61,24450,8316,5182,-36,35,18
32767,32767,-10950,55,5,-52,24348,8262,5114,-47,27,8
32767,32767,-10580,44,-18,-12,24424,8178,5050,-45,22,4
32767,32767,-10504,-109,-52,-16,24568,8088,5046,-57,23,3
32767,32767,-10476,-167,-68,-10,24466,7874,5078,-57,26,8
32767,32767,-10658,-84,-72,9,24450,8026,5198,-20,27,17
32767,32767,-10816,44,-42,14,24602,8192,5168,-22,24,0
32767,32767,-10954,115,-27,3,24512,8304,5064,-30,29,6
32767,32767,-10916,73,-37,-2,24468,8210,4944,-38,25,2
32767,32767,-10860,-55,-50,-10,24458,8050,5048,-42,24,8
32767,32767,-10762,15,-20,6,24506,7968,5112,-31,25,13
32767,32767,-10746,115,-2,4,24558,7930,5184,-18,28,9
32767,32767,-10770,82,-22,-7,24484,8126,5108,-12,29,8
32767,32767,-10608,-54,-56,-4,24398,8312,5126,-22,24,5
32767,32767,-10690,-170,-83,13,24472,8360,5062,-34,20,3
32767,32767,-10772,-90,-60,12,24546,8142,5046,-48,18,12
32767,32767,-11038,76,-25,7,24604,7876,4992,-53,22,24
32767,32767,-10958,163,-5,-2,24616,8022,5080,-18,36,36
32767,32767,-10792,91,-31,-3,24596,8318,5234,-13,41,36
32767,32767,-10744,-111,-58,-15,24546,8014,5108,-47,42,17
32767,32767,-10610,-242,-70,-26,24394,8080,5046,-35,43,15
32767,32767,-10684,-197,-58,-19,24444,7938,5032,-31,24,2
32767,32767,-10752,34,-36,12,24390,8016,5028,-14,21,11
32767,32767,-10784,138,-40,28,24476,8190,5144,-8,17,13
32767,32767,-10718,75,-52,19,24504,8310,5130,-24,22,9
32767,32767,-10826,-61,-51,-13,24430,8266,5126,-37,21,10
32767,32767,-10846,-163,-38,-47,24388,8066,5086,-49,17,4
32767,32767,-10716,-150,-32,-56,24460,7992,4990,-34,17,12
32767,32767,-10566,-16,-42,-30,24524,8132,5074,-22,19,24
32767,32767,-10638,109,-54,9,24626,8028,5128,-28,18,24
32767,32767,-10738,38,-64,12,24522,8074,5094,-26,24,14
32767,32767,-10860,-76,-69,1,24446,8168,5046,-21,21,6
32767,32767,-10872,-111,-71,7,24494,8186,5110,-43,18,4
32767,32767,-10902,-52,-62,11,24468,7892,5060,-42,16,12
32767,32767,-10916,26,-48,11,24512,7904,5124,-14,14,16
32767,32767,-10886,55,-41,3,24646,8124,5086,-4,15,14
32767,32767,-10872,13,-35,-12,24634,8396,5148,-8,26,17
32767,32767,-10738,-73,-41,-29,24578,8482,5126,-40,34,18
32767,32767,-10716,-118,-49,-38,24362,8136,5054,-61,27,14
32767,32767,-10698,-90,-52,-17,24454,7784,5088,-62,19,10
32767,32767,-10608,0,-53,9,24502,7700,5120,-30,19,19
32767,32767,-10724,50,-57,10,24454,7968,5134,-15,16,17
32767,32767,-10810,-11,-78,-1,24546,8054,5026,-10,17,10
32767,32767,-10740,-94,-79,-15,24546,8394,5048,0,19,13
32767,32767,-10910,-110,-71,-16,24504,8522,5092,-18,22,11
32767,32767,-10784,-12,-37,-3,24500,8212,5072,-49,22,13
32767,32767,-10772,19,-47,-4,24544,7738,5170,-47,21,11
32767,32767,-10788,-66,-59,-22,24546,7852,5076,-20,26,18
32767,32767,-10752,-164,-67,-26,24488,8094,5072,-13,21,19
32767,32767,-10670,-164,-62,-12,24506,8430,5058,-14,17,8
32767,32767,-10660,-124,-53,-16,24598,8322,5050,-35,16,10
32767,32767,-10634,-126,-62,-33,24600,8156,5116,-45,22,9
32767,32767,-10484,-281,-83,-56,24492,7904,5046,-56,23,9
32767,32767,-10334,-560,-124,-92,24436,7786,5088,-31,24,13
32767,32767,-10326,-615,-151,-107,24446,8218,5068,-8,19,10
32767,32767,-10196,-517,-122,-111,24490,8478,4974,-16,20,9
32767,32767,-10090,-402,-88,-120,24482,8310,5072,-54,18,6
32767,32767,-10222,-368,-103,-124,24452,7756,5042,-57,19,8
32767,32767,-9826,-452,-124,-99,24382,7762,5058,-27,19,12
32767,32767,-9438,-621,-163,-94,24522,7996,5110,-6,19,13
32767,32767,-9508,-775,-197,-136,24552,8320,5132,-11,20,12
32767,32767,-9326,-748,-173,-113,24524,8334,5076,-31,19,-1
32767,32767,-9066,-492,-126,-77,24500,7954,5062,-36,19,4
32767,32767,-9086,-307,-101,-76,24566,7852,5058,-16,23,9
32767,32767,-8984,-337,-106,-104,24646,8026,5088,7,33,12
32767,32767,-8930,-624,-165,-117,24556,8340,5208,2,39,9
32767,32767,-8706,-1101,-218,-118,24476,8270,5134,-30,37,3
32767,32767,-8818,-1620,-232,-146,24284,7982,4984,-40,31,2
32767,32767,-8258,-1928,-170,-201,24380,7966,5094,-16,19,-2
32767,32767,-7484,-1653,-90,-216,24488,8138,5098,-4,13,2
32767,32767,-6394,-960,-35,-154,24532,8224,5046,-5,18,6
32767,32767,-5978,-818,-43,-131,24500,8150,5104,-28,23,7
32767,32767,-5678,-965,-98,-130,24486,8138,5106,-33,26,10
32767,32767,-5708,-1563,-180,-114,24584,8090,5066,-24,24,10
32767,32767,-5702,-2184,-188,-174,24524,8264,5006,-22,30,13
32767,32767,-5218,-2541,-153,-283,24502,8214,5064,-28,26,10
32767,32046,-4322,-2449,-116,-305,24494,8120,5152,-35,22,3
32767,31090,-3482,-1950,-69,-235,24468,8016,5140,-37,25,6
32767,31208,-3076,-1271,-43,-146,24460,8070,5096,-35,23,6
32767,32767,-3002,-740,-53,-90,24528,8184,5040,-34,20,3
32767,32767,-3128,-709,-66,-51,24578,8158,5068,-43,23,4
32767,32767,-3042,-1365,-28,-38,24446,8026,5076,-38,27,10
32767,32767,-2412,-1833,2,-81,24432,7994,5090,-28,28,8
32767,31314,-1716,-1838,8,-109,24452,8146,5080,-11,24,10
32767,29854,-1122,-1432,19,-72,24434,8380,5100,-16,22,13
32767,29730,-694,-850,26,-32,24450,8202,5056,-40,21,12
32767,31308,-624,-438,12,-33,24394,8074,5116,-36,21,17
32767,32767,-594,-446,1,-37,24458,8084,5086,-32,16,14
32767,32767,-820,-919,-5,-48,24586,8184,5024,-25,22,17
32767,32767,-532,-1649,12,-92,24600,8332,5006,-29,39,35
32767,30852,-282,-1732,45,-102,24564,8334,4952,-36,48,45
32767,29318,34,-1460,65,-81,24458,8168,5026,-38,53,57
32767,29254,652,-1035,77,-57,24374,7966,5210,-47,49,55
32767,30430,1014,-730,65,-48,24450,7784,5176,-54,44,38
32767,31882,1012,-700,64,-26,24480,7744,5040,-22,46,31
32767,32350,960,-937,74,-29,24560,8422,5052,29,46,29
32767,31880,906,-1332,87,-84,24422,8794,5114,-4,48,45
32767,32310,968,-1646,106,-117,24422,8474,4932,-67,46,61
32767,31622,1144,-1992,127,-119,24564,7690,5200,-89,47,60
32767,29772,1606,-2091,140,-76,24616,7504,5086,-51,73,43
32767,28264,2180,-1859,136,13,24466,7884,5054,7,75,37
32767,27152,2772,-1474,139,116,24298,8250,5088,17,72,31
32767,27358,3090,-1114,156,170,24302,8454,4900,13,67,44
32767,28272,3330,-1033,162,126,24302,8600,4772,1,60,80
32767,28350,3732,-1255,163,51,24338,8286,4770,-7,45,97
32767,27574,3968,-1462,152,9,24458,7750,5146,-19,44,86
32767,26924,4084,-1580,145,-10,24490,7606,5232,9,66,76
32767,26092,4146,-1608,131,-29,24318,7952,5222,41,92,84
32767,25220,4534,-1515,112,-36,24192,8358,5234,32,89,88
32767,24850,4726,-1322,95,-18,24198,8396,5150,-20,64,72
32767,24672,4760,-1117,81,-19,24280,8112,4758,-26,54,74
32767,24760,4910,-961,70,-37,24372,7942,4660,4,35,80
32767,25588,4826,-904,73,-66,24336,8028,4848,39,29,50
32767,25972,4838,-1013,83,-83,24346,8136,4880,7,39,43
32767,25560,4982,-1139,87,-82,24318,8068,5294,-14,61,59
32767,24556,5100,-1128,70,-59,24208,8088,5358,-23,58,72
32767,23522,5368,-979,55,-21,23990,8182,5406,6,53,74
32767,23312,5740,-751,42,29,23940,8466,5164,28,9,53
32767,24298,5654,-673,30,14,24186,8864,4938,12,-16,29
32767,24196,5604,-807,-3,-46,24458,8894,5058,-64,-24,22
32767,22920,5644,-799,-12,12,24696,8488,5098,-175,-7,10
32767,22470,5854,-704,-24,24,24446,8120,5168,-197,23,12
32767,22012,5862,-595,-36,-23,24254,7954,5418,-172,24,19
32767,22678,6008,-532,-47,-51,24194,7830,5206,-115,7,40
32767,22956,5808,-634,-58,-106,24362,7934,4966,-78,-4,41
32767,22160,5780,-698,-68,-173,24568,8108,5024,-75,-8,26
32767,21332,5796,-589,-58,-160,24718,8238,5068,-95,-15,-5
32767,21642,5880,-376,-46,-121,24562,8206,5218,-167,13,-6
32767,22364,5854,-277,-48,-115,24206,7846,5286,-182,14,27
32767,22498,5814,-239,-27,-97,24214,7730,5166,-132,-4,30
32767,23076,5840,-302,-8,-109,24416,7956,5104,-86,-4,14
32767,22968,5930,-472,13,-182,24532,8382,5118,-100,12,2
32767,21574,6326,-690,-22,-156,24454,8388,5238,-155,19,12
32767,20988,6440,-495,-56,-49,24280,8074,5256,-213,6,24
