ax,ay,az,gx,gy,gz
32767,19964,6054,4,-98,-4
32767,20114,5786,8,-69,-6
32767,20138,5636,4,-20,-2
32767,20246,5772,-3,22,-9
32767,20392,6400,-34,23,-9
32767,20346,6740,-72,-21,-11
32767,20126,6772,-85,-83,-6
32767,19924,6316,-53,-130,7
32767,19802,5616,6,-107,18
32767,20040,5454,22,-41,-2
32767,20178,5862,-25,16,-17
32767,20096,6464,-71,15,-29
32767,19966,6862,-68,-32,-26
32767,19966,6562,-20,-92,-6
32767,20084,5980,15,-110,15
32767,20266,5612,-22,-65,5
32767,20032,5738,-58,-4,-17
32767,20006,6228,-55,8,-16
32767,20024,6596,-32,-8,-11
32767,20144,6554,-26,-56,-8
32767,20102,6306,-35,-91,-6
32767,19890,5962,-14,-93,0
32767,20060,5808,10,-73,-8
32767,20472,6010,-14,-38,-13
32767,20334,6064,-66,-19,-10
32767,20072,6076,-72,-17,-2
32767,19868,6132,-42,-19,13
32767,19834,6348,-28,-49,9
32767,19892,6322,-39,-64,-21
32767,19916,6064,-33,-66,-21
32767,19946,5898,4,-51,-8
32767,20134,6092,20,-27,-5
32767,20318,6314,-24,-39,-16
32767,20130,6404,-58,-55,-15
32767,20036,6224,-51,-74,-11
32767,20014,5938,-10,-68,-5
32767,20058,5810,10,-37,2
32767,20220,5968,-9,-16,-13
32767,20220,6554,-60,-30,-26
32767,20088,6524,-54,-66,-14
32767,20066,6130,-24,-86,-1
32767,20084,5750,-2,-72,8
32767,20084,5884,-18,-43,2
32767,19982,6140,-37,-21,-12
32767,20046,6300,-46,-22,-16
32767,20028,6356,-39,-46,-16
32767,20080,6094,-20,-53,0
32767,20012,5978,-25,-48,-3
32767,20000,6166,-19,-43,-12
32767,20168,6276,-29,-49,-17
32767,20174,6170,-32,-53,-13
32767,20160,5990,-16,-46,1
32767,20138,6044,-13,-34,5
32767,20160,6262,-31,-31,-7
32767,20166,6330,-78,-44,-21
32767,19814,6196,-63,-52,-14
32767,19742,6040,7,-53,3
32767,19946,5918,68,-44,12
32767,20466,6194,25,-46,-4
32767,20462,6334,-71,-47,-21
32767,20016,6108,-120,-61,-25
32767,19764,5908,-58,-52,-6
32767,20014,5920,34,-32,11
32767,20336,6238,4,-27,-7
32767,20324,6336,-62,-36,-26
32767,19950,6190,-29,-63,-7
32767,20354,6030,15,-62,10
32767,20312,5938,-31,-43,0
32767,20082,6076,-82,-36,-9
32767,19754,6190,-61,-35,-5
32767,19912,6078,-10,-37,2
32767,20166,6106,-17,-36,-7
32767,20012,6080,-56,-33,-19
32767,19900,6346,-26,-53,-17
32767,20018,6246,7,-63,-3
32767,20184,5926,12,-52,-5
32767,20198,5950,-25,-29,-14
32767,20206,6172,-58,-19,-24
32767,20060,6294,-58,-24,-16
32767,19950,6300,-31,-43,-4
32767,20126,6152,-1,-52,1
32767,20170,6054,-5,-49,2
32767,20100,6060,-28,-49,-9
32767,20114,6288,-59,-59,-20
32767,20028,6134,-43,-61,-8
32767,20074,5800,-11,-51,1
32767,20058,5834,2,-24,10
32767,20148,6140,-23,-11,0
32767,20078,6486,-60,-30,-16
32767,19924,6440,-60,-57,-13
32767,19860,6098,-35,-79,-9
32767,19998,5778,9,-56,-5
32767,20210,5934,0,-30,-8
32767,20306,6068,-38,-15,-18
32767,20138,6426,-67,-33,-18
32767,19946,6450,-44,-58,-6
32767,19900,6066,1,-75,8
32767,20158,5948,19,-64,3
32767,20294,5812,-23,-30,-7
32767,20102,6182,-84,-10,-22
32767,19802,6562,-67,-29,-19
32767,19750,6488,-13,-66,-8
32767,20032,6248,39,-90,-4
32767,20350,5964,21,-77,-5
32767,20298,5750,-23,-40,-1
32767,20150,5942,-64,-14,-8
32767,19974,6454,-60,-23,-11
32767,19972,6334,-42,-47,-6
32767,20084,6170,-31,-60,-10
32767,20052,5952,-22,-55,-7
32767,20118,6050,-25,-46,-8
32767,20028,6216,-30,-41,-10
32767,20098,6328,-19,-50,-10
32767,20160,6198,-23,-58,0
32767,20028,5832,-35,-44,1
32767,19948,5882,-30,-23,2
32767,19968,6154,-33,-8,-6
32767,20042,6316,-35,-20,-10
32767,20092,6442,-53,-50,-14
32767,19880,6348,-49,-80,-11
32767,19792,6014,-12,-87,-5
32767,19988,5736,30,-61,0
32767,20330,5848,7,-8,-20
32767,20348,6290,-58,1,-28
32767,20128,6544,-70,-26,-18
32767,19912,6512,-38,-64,0
32767,19964,6180,12,-87,11
32767,20162,5918,9,-75,4
32767,20202,5910,-31,-49,-14
32767,20078,6198,-48,-38,-10
32767,20120,6222,-31,-54,-3
32767,20044,6058,-20,-54,4
32767,19948,5938,-12,-41,8
32767,19972,6228,-13,-31,0
32767,20136,6562,-39,-71,-18
32767,20120,6496,-70,-104,-18
32767,19940,5966,-57,-118,-11
32767,19856,5550,1,-85,4
32767,20080,5456,30,-30,6
32767,20216,5854,0,21,-5
32767,20376,6342,-54,29,-22
32767,20150,6728,-76,-10,-22
32767,19842,6702,-19,-102,17
32767,20062,6132,22,-138,9
32767,20232,5560,2,-113,-1
32767,20106,5390,-24,-45,-3
32767,20002,5732,-36,20,-20
32767,19970,6384,-14,38,-22
32767,20240,6800,0,2,-8
32767,20330,6756,-19,-64,-4
32767,20208,6112,-46,-118,8
32767,19946,5616,-38,-94,14
32767,19890,5546,-17,-41,5
32767,20194,5882,-38,8,-19
32767,20256,6218,-93,27,-34
32767,20034,6384,-113,8,-36
32767,19792,6460,-51,-34,-20
32767,20014,6234,38,-73,3
32767,20584,5988,32,-85,4
32767,20648,5828,-51,-56,-5
32767,20310,5764,-111,-16,-5
32767,19850,6096,-111,6,9
32767,19586,6252,-63,-4,16
32767,19608,6578,-42,-43,12
32767,19648,6506,-43,-81,-14
32767,19628,6042,-39,-90,-31
32767,19806,5638,15,-49,-26
32767,20120,5840,35,-9,-29
32767,20626,6150,-2,6,-39
32767,20420,6444,-70,-14,-27
32767,20074,6368,-59,-51,-9
32767,20022,6078,-3,-70,7
32767,20318,5822,7,-56,12
32767,20338,5892,-77,-7,-16
32767,20014,6118,-104,15,-20
32767,19868,6460,-69,7,-7
32767,19916,6672,-28,-30,3
32767,19916,6578,-16,-69,7
32767,19766,6350,-4,-98,12
32767,19766,6018,0,-109,-6
32767,19764,5958,15,-95,-17
32767,20214,6066,33,-68,-7
32767,20362,6016,5,-48,-5
32767,20270,6044,-20,-36,3
32767,20296,6016,-24,-34,5
32767,20260,6194,-34,-39,5
32767,20274,6256,-51,-50,7
32767,20120,6232,-62,-65,4
32767,19914,6050,-35,-65,8
32767,20028,5778,5,-38,17
32767,20224,5844,-14,-8,4
32767,20206,6218,-81,-7,-6
32767,19684,6448,-107,-23,-10
32767,19508,6430,-52,-55,-17
32767,20476,5778,-36,-11,-11
32767,20214,6142,-108,7,-25
32767,19978,6384,-110,-1,-26
32767,19842,6454,-66,-29,-13
32767,20002,6338,-15,-49,-11
32767,20118,6120,-3,-52,-6
32767,20134,6150,-15,-58,-8
32767,20042,6148,-30,-62,-18
32767,20124,6082,-41,-61,-24
32767,20030,6000,-47,-54,-11
32767,19856,5958,-28,-43,1
32767,19920,5962,-16,-30,-2
32767,20028,6182,-37,-25,-11
32767,19914,6326,-67,-38,-20
32767,19786,6296,-55,-49,-21
32767,19776,5976,6,-43,-11
32767,20068,5920,22,-24,-9
32767,20304,6214,-9,-21,-17
32767,20298,6404,-59,-33,-23
32767,20044,6382,-81,-53,-16
32767,19788,6024,-49,-56,-12
32767,19924,5930,2,-46,-1
32767,20116,5888,11,-25,3
32767,20138,6348,-38,-25,-14
32767,20102,6324,-64,-39,-19
32767,19934,6278,-67,-60,-16
32767,19930,6098,-48,-67,-4
32767,19980,5982,-26,-54,4
32767,19998,5870,-21,-29,1
32767,19906,6088,-30,-15,0
32767,19872,6380,-44,-34,-12
32767,19826,6376,-49,-59,-23
32767,19844,6064,-28,-71,-16
32767,19996,5882,-6,-58,-13
32767,20168,5892,-7,-35,-14
32767,20210,6216,-26,-27,-7
32767,20206,6342,-47,-34,-3
32767,19988,6252,-70,-47,-4
32767,19812,5866,-47,-41,-14
32767,19884,5984,-25,-21,-6
32767,19930,6130,-17,-5,-9
32767,19980,6478,-27,-27,-12
32767,19970,6532,-32,-53,-15
32767,19948,6304,-31,-76,-8
32767,19966,6032,-36,-83,-7
32767,19906,5862,-49,-68,-15
32767,19948,5992,-45,-36,-19
32767,19998,6074,-41,-14,-17
32767,19986,6212,-33,-16,-15
32767,20014,6318,-26,-36,-17
32767,20080,6324,-23,-56,-17
32767,20216,6216,-42,-74,-14
32767,20108,6082,-75,-73,-13
32767,19824,5786,-72,-59,-6
32767,19792,5850,-6,-22,9
32767,20024,5976,0,-1,4
32767,20152,6226,-69,-5,-17
32767,19786,6362,-117,-24,-23
32767,19512,6300,-87,-52,-21
32767,19574,5978,-6,-54,-7
32767,19886,5864,28,-31,4
32767,20210,5922,-16,3,-16
32767,19914,6416,-97,4,-38
32767,19654,6474,-33,-48,-6
32767,19822,6194,7,-76,-10
32767,19902,6034,-4,-72,-12
32767,19906,6060,-38,-64,-30
32767,19822,6118,-17,-47,-21
32767,19956,5936,22,-31,-4
32767,20106,6168,9,-28,-3
32767,20032,6494,-43,-37,-9
32767,19720,6542,-63,-62,-14
32767,19458,6310,4,-89,-2
32767,19702,6118,91,-102,13
32767,20096,5916,66,-94,10
32767,20054,5912,-3,-87,-9
32767,19912,5950,-33,-84,-21
32767,19970,5820,-14,-72,-9
32767,20086,5614,7,-41,4
32767,20278,5688,-13,1,1
32767,20308,6008,-62,33,-7
32767,20356,6614,-100,19,-11
32767,20070,6706,-124,-40,-9
32767,19640,6398,-57,-84,16
32767,19562,6040,35,-87,28
32767,19882,5960,77,-72,20
32767,20130,6188,22,-52,5
32767,20016,6300,-45,-56,-16
32767,19906,6202,-64,-62,-18
32767,19814,5936,-25,-57,5
32767,19864,6034,-16,-38,8
32767,19850,6296,-42,-44,-8
32767,19690,6382,-37,-62,-17
32767,19840,6226,-13,-81,-21
32767,20058,6000,7,-80,-19
32767,20142,5788,1,-57,-9
32767,20112,5838,-9,-28,-6
32767,20142,6286,-12,-36,-6
32767,20252,6424,-45,-64,-6
32767,20098,6134,-67,-84,-8
32767,19826,5762,-45,-69,1
32767,19832,5684,1,-31,10
32767,20156,5976,8,0,5
32767,20178,6384,-52,-8,-8
32767,19972,6596,-84,-35,-13
32767,19666,6302,-51,-75,-5
32767,19776,5914,13,-69,2
32767,20042,5786,13,-38,-2
32767,20010,6176,-23,-20,-17
32767,20006,6386,-43,-28,-23
32767,19954,6398,-47,-53,-16
32767,19960,6230,-16,-72,-8
32767,19980,5926,4,-65,-3
32767,20136,5848,-15,-28,-9
32767,20100,6246,-52,-23,-24
32767,20020,6482,-57,-42,-20
32767,20040,6426,-29,-71,0
32767,20050,5998,-26,-76,7
32767,19818,5722,-30,-49,2
32767,19754,5808,-22,-7,-12
32767,19934,6206,-15,-3,-21
32767,20082,6568,-31,-27,-18
32767,20048,6380,-38,-59,-15
32767,20006,6024,-20,-68,-4
32767,19944,5800,-4,-49,4
32767,19946,5880,-18,-26,-10
32767,20100,6228,-50,-11,-26
32767,19854,6340,-76,-24,-35
32767,19932,6162,33,-60,1
32767,20200,6094,50,-58,11
32767,20376,6252,-11,-60,0
32767,20324,6086,-97,-63,-16
32767,19850,6112,-122,-50,-11
32767,19570,5934,-29,-26,7
32767,19932,6042,29,-12,9
32767,20318,6380,-12,-19,-7
32767,20192,6586,-77,-40,-18
32767,19840,6386,-89,-76,-14
32767,19694,6132,-21,-99,7
32767,19896,5742,31,-81,12
32767,20186,5730,10,-46,5
32767,20102,6160,-68,-13,-5
32767,19756,6384,-80,-19,-4
32767,19668,6336,-32,-41,3
32767,19880,6160,-4,-56,6
32767,19954,6188,-32,-58,-5
32767,19758,6162,-39,-52,-24
32767,19766,6132,6,-52,-16
32767,20180,6198,35,-53,-1
32767,20400,6114,-25,-44,-10
32767,20126,6084,-66,-33,-6
32767,19880,6202,-57,-31,1
32767,19838,6310,-23,-48,4
32767,20014,6250,-14,-61,0
32767,20018,6068,-22,-65,-4
32767,19970,5936,-21,-53,2
32767,19972,6034,-15,-39,3
32767,20112,6178,-7,-35,-5
32767,20208,6236,-27,-49,2
32767,19904,6196,-44,-52,7
32767,19638,6034,-7,-53,6
32767,19802,6138,57,-57,13
32767,20398,6224,39,-62,-1
32767,20196,6034,-56,-62,-13
32767,19354,5770,-25,-32,-7
32767,19534,5804,71,-18,-1
32767,20326,5958,91,0,-9
32767,20862,5868,-36,15,-49
32767,20390,6044,-141,50,-43
32767,20080,6110,-144,84,-11
32767,19838,6320,-98,80,-22
32767,20026,6712,-49,42,-5
32767,19822,6808,-32,-35,-5
32767,20076,6514,-8,-84,-22
32767,20186,6038,-11,-103,-3
32767,19990,5656,-23,-78,-7
32767,19962,5700,-21,-30,-18
32767,19948,6112,-19,-5,-14
32767,19988,6466,-45,-29,-10
32767,19850,6548,-58,-73,-15
32767,19562,5944,-13,-98,-5
32767,19838,5760,21,-86,-14
32767,20158,5878,-4,-59,-36
32767,20208,5898,-28,-31,-39
32767,20156,6042,-19,-12,-23
32767,20338,6084,-8,-7,-18
32767,20322,6394,-51,-11,-22
32767,20164,6426,-81,-33,-26
32767,19936,6282,-8,-79,8
32767,20162,6192,35,-97,21
32767,20378,5982,-19,-87,8
32767,19998,5788,-96,-60,-3
32767,19480,5944,-44,-23,1
32767,19838,6300,11,-30,-3
32767,20110,6284,-23,-41,-14
32767,19870,6102,-54,-56,-20
32767,19712,6026,-25,-56,-15
32767,19782,6110,31,-57,-2
32767,20176,6152,44,-56,-11
32767,20428,6120,-25,-52,-30
32767,20128,6066,-74,-52,-38
32767,20122,6046,-14,-54,2
32767,20320,5972,12,-50,26
32767,20510,5960,-41,-37,6
32767,20226,5880,-112,-13,-8
32767,19906,5972,-110,8,-2
32767,19982,6200,-65,5,6
32767,20018,6470,-36,-20,14
32767,19836,6284,-47,-48,19
32767,19724,6014,-49,-49,2
32767,19910,5852,-23,-36,-4
32767,19828,6186,-35,-31,23
32767,19790,6430,-39,-40,-2
32767,19614,6428,-42,-54,-8
32767,19594,6250,-4,-68,17
32767,19872,6060,16,-73,4
32767,20056,5946,-25,-54,-25
32767,20080,6134,-25,-35,-16
32767,20106,6154,-3,-36,-10
32767,20316,6248,24,-44,-2
32767,20382,6374,5,-57,12
32767,20314,6262,-15,-77,4
32767,20300,6144,-26,-90,14
32767,20224,5924,-34,-86,30
32767,20074,5806,-66,-48,16
32767,19860,5832,-82,-28,15
32767,19888,6020,-60,-1,-3
32767,20086,6154,-43,-6,22
32767,19854,6120,-62,-11,16
32767,19632,6290,-75,-24,20
32767,19540,6178,-85,-44,-41
32767,19518,6086,-31,-52,-4
32767,19700,5812,0,-33,-29
32767,19974,5804,15,-1,-36
32767,20148,6114,-1,28,-21
32767,20222,6312,-56,10,-30
32767,20094,6436,-97,-22,-39
32767,19884,6206,-85,-47,-25
32767,19952,5930,-32,-45,-4
32767,20044,5700,-32,-8,-8
32767,19966,5976,-75,16,-24
32767,19826,6060,-116,21,-46
32767,19632,6120,-119,24,-47
32767,19650,6090,-79,16,-48
32767,19678,6048,-33,21,-32
32767,19892,6136,-7,27,-26
32767,20040,6300,-24,22,-38
32767,20144,6420,-71,0,-42
32767,20118,6324,-86,-27,-36
32767,20092,5990,-60,-32,-18
32767,20062,5868,-42,-17,11
32767,19922,6044,-50,-17,17
32767,19706,6196,-71,-17,12
32767,19594,6190,-98,-17,-12
32767,19406,6040,-98,-22,-23
32767,19558,6102,-21,-8,-10
32767,19780,6454,-17,-58,-4
32767,19616,6326,-3,-84,4
32767,19682,6090,30,-99,11
32767,19708,6028,58,-103,12
32767,19816,5950,82,-84,17
32767,19646,6198,126,-72,35
32767,19322,6246,218,-103,55
32767,18654,6336,492,-162,112
32767,20224,5994,696,-180,166
32767,19774,5812,711,-161,161
32767,20106,5682,825,-122,169
32767,21018,5990,816,-126,183
32767,21894,6092,594,-123,88
32767,21376,6068,391,-125,57
32767,19990,5994,457,-118,66
32767,19400,6032,826,-123,141
32767,20090,6136,1281,-156,222
32767,22832,6054,1463,-215,238
32767,24708,5806,1163,-231,189
32767,24278,5532,708,-214,112
32767,22984,5336,507,-196,68
32767,22284,5434,629,-187,118
32767,21836,5462,927,-176,171
32767,23908,5260,1136,-201,200
32767,25492,5056,928,-177,152
32767,25294,5260,583,-156,93
32767,24314,5282,411,-150,71
32767,23304,5370,530,-139,104
32767,23708,5118,901,-141,148
32767,25440,5036,962,-155,139
32767,26088,5160,773,-156,139
32767,25420,5092,624,-172,118
32767,24864,4916,667,-184,116
32767,24710,4870,818,-186,132
32767,25126,4664,1008,-195,172
32767,25730,4660,1117,-191,181
32767,26746,4388,1154,-223,174
32767,26384,4292,1148,-225,192
32767,26114,4026,1352,-230,256
32767,27158,3572,1558,-248,278
32767,29490,3370,1500,-269,244
32767,30558,3206,1028,-261,200
32767,28490,3138,674,-234,210
32767,26844,3076,904,-217,295
32767,27198,2944,1420,-221,346
32767,28388,2480,1771,-220,418
32767,29190,2234,1882,-211,448
32767,29406,2204,1899,-200,448
32767,29344,1698,2053,-214,494
32767,29428,1350,2333,-269,537
32767,31510,284,2481,-314,520
32767,32767,-974,1940,-245,419
32767,32478,-1186,1506,-183,402
32767,30462,-1158,1566,-106,439
32767,31142,-1886,1877,-71,417
32767,32767,-2250,1800,-36,289
32767,32767,-2090,1468,90,186
32767,32767,-1814,1429,85,283
32767,32580,-1980,1638,5,377
32767,32767,-2890,1832,-92,409
32767,32767,-3476,1723,-117,473
32767,32767,-4122,1535,-127,504
32767,32767,-4256,1562,-170,507
32767,32767,-5126,1576,-191,482
32767,32767,-5898,1619,-123,463
32767,32336,-6396,1878,-44,451
32767,32767,-7170,2212,-6,382
32767,32767,-8086,2074,-22,226
32767,32767,-8610,1234,-68,80
32767,32767,-8652,556,-33,144
32767,32767,-8446,570,51,300
32767,32767,-8592,756,57,305
32767,32767,-8514,1000,86,191
32767,32767,-8372,1113,97,206
32767,32767,-8428,1547,148,325
32767,32767,-9034,1899,141,418
32767,32767,-9670,1798,40,428
32767,32767,-10388,1338,-79,370
32767,32767,-10630,1109,-166,348
32767,32767,-11336,1408,-128,374
32767,32767,-12030,1413,-120,296
32767,32767,-12584,1100,-121,182
32767,32767,-12560,750,-142,131
32767,32767,-12564,669,-170,123
32767,32767,-12514,860,-168,117
32767,32767,-12840,1107,-150,108
32767,32767,-13468,928,-129,26
32767,32767,-13888,228,-136,-132
32767,32767,-13864,-18,-123,-96
32767,32767,-14012,-71,-104,-33
32767,32767,-14006,-71,-87,-55
32767,32767,-13960,-148,-85,-80
32767,32767,-13776,-289,-56,-82
32767,32767,-13436,-198,4,-60
32767,32767,-13078,59,39,-45
32767,32767,-12444,369,2,6
32767,32767,-12624,478,-45,50
32767,32767,-13192,235,-142,30
32767,32767,-13876,-180,-191,-22
32767,32767,-14264,-385,-189,-43
32767,32767,-14606,-345,-124,-46
32767,32767,-14444,-262,-30,-85
32767,32767,-13862,-109,32,-79
32767,32767,-12854,10,69,-35
32767,32767,-12644,-70,21,-43
32767,32767,-12740,-192,-39,-65
32767,32767,-12920,-229,-87,-44
32767,32767,-12908,-57,-103,-1
32767,32767,-13166,55,-112,13
32767,32767,-13390,67,-104,28
32767,32767,-13488,31,-90,39
32767,32767,-13430,-37,-72,0
32767,32767,-13146,-62,-94,12
32767,32767,-13270,-57,-97,27
32767,32767,-13502,-105,-100,0
32767,32767,-13758,-174,-72,-35
32767,32767,-13850,-187,-27,-59
32767,32767,-13378,-16,12,-38
32767,32767,-12774,95,-8,22
32767,32767,-12810,-37,-38,18
32767,32767,-13150,-211,-72,-12
32767,32767,-13452,-243,-49,-34
32767,32767,-13394,-62,-14,-19
32767,32767,-13008,-69,-35,-51
32767,32767,-13060,-238,-67,-58
32767,32767,-13110,-340,-73,-63
32767,32767,-12996,-222,-66,-10
32767,32767,-12774,102,-25,47
32767,32767,-12812,281,-6,35
32767,32767,-13022,165,-44,-13
32767,32767,-13230,-230,-95,-68
32767,32767,-13358,-339,-107,-63
32767,32767,-13328,-193,-69,-17
32767,32767,-13150,54,-18,30
32767,32767,-13008,184,4,20
32767,32767,-12790,45,-23,-32
32767,32767,-12880,-189,-72,-55
32767,32767,-12948,-292,-101,-39
32767,32767,-12974,-112,-67,3
32767,32767,-13032,88,-37,27
32767,32767,-12998,191,-27,20
32767,32767,-12864,94,-49,-5
32767,32767,-12916,-110,-80,-22
32767,32767,-13042,-196,-98,-16
32767,32767,-13266,-159,-77,-7
32767,32767,-13304,-60,-43,-2
32767,32767,-13178,51,1,-5
32767,32767,-13062,-8,5,-29
32767,32767,-12922,-139,-20,-55
32767,32767,-12810,-247,-45,-56
32767,32767,-12732,-191,-49,-23
32767,32767,-12634,-41,-36,6
32767,32767,-12664,106,-40,33
32767,32767,-12720,118,-57,42
32767,32767,-12922,-70,-78,-6
32767,32767,-13254,-170,-73,-35
32767,32767,-13206,-86,-34,-20
32767,32767,-12984,40,-1,-11
32767,32767,-12810,122,-2,5
32767,32767,-12748,48,-33,10
32767,32767,-12798,-131,-70,-13
32767,32767,-12942,-238,-73,-34
32767,32767,-12932,-119,-24,-28
32767,32767,-12866,68,1,3
32767,32767,-12620,159,-8,41
32767,32767,-12582,60,-43,36
32767,32767,-12668,-87,-80,-1
32767,32767,-12926,-146,-92,-12
32767,32767,-12992,-65,-81,10
32767,32767,-13018,82,-46,37
32767,32767,-13048,94,-24,33
32767,32767,-12940,-1,-29,-2
32767,32767,-12840,-137,-54,-36
32767,32767,-12902,-185,-74,-35
32767,32767,-12838,-103,-71,-16
32767,32767,-12898,12,-51,-5
32767,32767,-12964,97,-36,6
32767,32767,-12920,31,-35,2
32767,32767,-12972,-69,-59,-12
32767,32767,-12956,-153,-72,-28
32767,32767,-12994,-92,-58,-15
32767,32767,-12862,51,-28,20
32767,32767,-12814,116,-8,19
32767,32767,-12758,56,-33,-3
32767,32767,-12770,-51,-71,-24
32767,32767,-12982,-117,-93,-13
32767,32767,-13190,-5,-64,7
32767,32767,-13244,71,-36,20
32767,32767,-13064,62,-12,7
32767,32767,-12894,-15,-19,-14
32767,32767,-12684,-115,-61,-26
32767,32767,-12624,-141,-92,-7
32767,32767,-12840,-67,-89,26
32767,32767,-12984,36,-89,39
32767,32767,-13096,69,-65,31
32767,32767,-12970,7,-55,11
32767,32767,-12904,-101,-72,-19
32767,32767,-12898,-157,-66,-31
32767,32767,-13044,-81,-43,-28
32767,32767,-12988,37,-22,-8
32767,32767,-12858,99,-20,18
32767,32767,-12716,27,-31,8
32767,32767,-12738,-87,-46,-12
32767,32767,-12900,-127,-47,-27
32767,32767,-12896,-79,-44,-36
32767,32767,-12842,30,-43,-9
32767,32767,-12782,22,-58,2
32767,32767,-12734,-24,-61,0
32767,32767,-12864,-26,-57,-16
32767,32767,-12946,4,-53,-17
32767,32767,-13034,23,-68,6
32767,32767,-12968,-38,-72,11
32767,32767,-12962,-97,-68,5
32767,32767,-12928,-79,-40,10
32767,32767,-12936,-32,-12,-16
32767,32767,-12882,26,-6,-39
32767,32767,-12576,29,-36,-21
32767,32767,-12526,-42,-73,-8
32767,32767,-12608,-119,-94,-3
32767,32767,-12794,-96,-87,8
32767,32767,-12928,-1,-49,3
32767,32767,-13152,111,-34,-15
32767,32767,-13064,111,-58,3
32767,32767,-12954,-5,-73,8
32767,32767,-13104,-151,-79,-11
32767,32767,-13160,-188,-52,-31
32767,32767,-13154,-80,-9,-42
32767,32767,-12924,64,15,-44
32767,32767,-12726,108,-14,-16
32767,32767,-12590,-43,-53,5
32767,32767,-12712,-176,-87,-1
32767,32767,-12854,-163,-70,-13
32767,32767,-12952,34,-46,-1
32767,32767,-13008,185,-34,12
32767,32767,-13048,119,-49,7
32767,32767,-12964,-104,-71,-9
32767,32767,-13004,-249,-62,-20
32767,32767,-12946,-126,-21,-30
32767,32767,-12900,67,15,-23
32767,32767,-12876,200,24,-15
32767,32767,-12646,114,-22,-35
32767,32767,-12762,-35,-66,-28
32767,32767,-12764,-93,-89,-8
32767,32767,-12900,-12,-81,3
32767,32767,-13036,123,-69,16
32767,32767,-13102,90,-70,16
32767,32767,-13128,-146,-83,-6
32767,32767,-13230,-224,-81,-22
32767,32767,-13242,-241,-67,-34
32767,32767,-13048,-398,-66,-66
32767,32767,-12770,-509,-59,-86
32767,32767,-12406,-582,-75,-96
32767,32767,-12268,-825,-157,-115
32767,32767,-12330,-1293,-242,-130
32767,32767,-12112,-1940,-315,-139
32767,32767,-11518,-2036,-312,-51
32767,31934,-9986,-973,-221,147
32767,32767,-10154,-481,-242,177
32767,32767,-10152,-777,-246,65
32767,32767,-10916,-1851,-302,-103
32767,32767,-10962,-3129,-341,-316
32767,32767,-10422,-3715,-249,-432
32767,31886,-8802,-3413,-51,-375
32767,30670,-7442,-2590,69,-263
32767,32624,-5926,-1487,143,-240
32767,32767,-5488,-1250,124,-246
32767,32767,-5198,-1685,96,-270
32767,32767,-4868,-2416,50,-319
32767,32767,-3962,-2654,-9,-316
32767,31108,-2866,-2236,-60,-247
32767,30986,-2410,-1592,-91,-185
32767,32726,-2506,-1140,-101,-155
32767,32767,-2816,-1261,-109,-154
32767,32767,-2524,-1478,-79,-146
32767,32767,-2122,-1642,-86,-146
32767,31414,-1952,-1473,-65,-100
32767,31050,-1590,-1073,-14,-27
32767,31650,-1382,-789,2,1
32767,32374,-1294,-731,51,-21
32767,32526,-650,-841,67,-22
32767,32046,-160,-927,50,-23
32767,31752,-118,-922,35,-22
32767,30956,-8,-829,23,20
32767,30602,174,-599,11,85
32767,30858,488,-407,-10,102
32767,31316,600,-306,-53,98
32767,32012,422,-378,-56,72
32767,31902,382,-601,-65,44
32767,30200,516,-644,-63,80
32767,29154,716,-362,-50,116
32767,29318,604,18,-43,105
32767,32290,598,68,-4,25
32767,32767,394,-507,9,-50
32767,32550,816,-1169,41,-57
32767,29406,1006,-1232,51,-4
32767,27960,1550,-618,49,53
32767,29050,1600,-171,29,65
32767,30460,1468,-88,33,3
32767,30666,1576,-228,32,-24
32767,30292,1854,-365,26,-5
32767,30472,2066,-417,16,6
32767,31088,2018,-573,-3,-12
32767,30314,1910,-760,-27,-10
32767,29042,1648,-665,-20,25
32767,29482,1736,-550,10,-6
32767,29866,1980,-570,44,-27
32767,29806,2464,-672,41,-24
32767,29250,2736,-750,18,-4
32767,28666,2440,-737,8,-15
32767,28080,2580,-638,16,-1
32767,28294,2864,-492,33,25
32767,28598,3054,-446,34,3
32767,28878,3094,-485,32,-4
32767,28848,3142,-594,32,3
32767,27958,3190,-647,13,4
32767,27346,3318,-544,13,14
32767,27554,3410,-395,14,-4
32767,27564,3512,-345,8,-7
32767,27052,3518,-249,-8,19
32767,27076,3760,-94,-20,24
32767,28270,3572,-40,-10,-14
32767,29786,3310,-307,9,-56
32767,29138,3288,-721,32,-74
32767,26828,3612,-852,62,-59
32767,25906,4066,-557,45,7
32767,26234,4212,-197,17,62
32767,27716,4038,-93,1,27
32767,28922,3614,-333,14,-33
32767,28286,3676,-709,36,-34
32767,26528,4146,-825,39,5
32767,25764,4332,-688,41,5
32767,26248,4194,-494,40,-26
32767,26674,3934,-519,68,-47
32767,26744,4326,-619,107,-59
32767,26504,4500,-713,105,-77
32767,26384,4738,-782,108,-91
32767,26178,4742,-846,104,-85
32767,25688,4702,-900,111,-79
32767,25054,4928,-877,109,-61
32767,24524,5132,-666,71,-20
32767,24912,5146,-570,61,-39
32767,25340,5132,-598,62,-65
32767,25478,5054,-745,70,-69
32767,24628,5106,-858,80,-50
32767,23728,5276,-795,74,-51
32767,23402,5506,-658,69,-34
32767,23284,5592,-511,59,-9
32767,23116,5560,-390,54,-78
32767,23492,5344,-353,64,-129
32767,23994,5510,-444,88,-159
32767,23572,5456,-548,95,-191
32767,22914,5548,-521,102,-204
32767,22680,5666,-385,119,-170
32767,23022,5704,-245,134,-135
32767,23696,5740,-248,124,-160
32767,24112,5944,-446,110,-184
32767,23486,6040,-572,81,-136
32767,22654,5852,-545,63,-109
32767,22334,5636,-425,73,-127
32767,22658,5538,-358,106,-143
32767,22976,5910,-401,118,-140
32767,22730,6174,-503,106,-127
32767,22050,6100,-544,74,-137
32767,21526,5902,-484,60,-159
32767,21356,5844,-358,69,-150
32767,21962,5816,-280,91,-137
32767,22146,5648,-309,123,-129
32767,21660,5886,-354,153,-157
32767,21176,6278,-295,151,-157
32767,22542,6280,-232,19,-70
32767,21790,5980,-317,8,-53
32767,20848,6168,-237,-3,-5
32767,20784,6378,-39,-14,33
32767,21362,6332,64,-29,37
32767,21628,6132,39,-39,10
32767,21612,5994,-5,-27,-13
32767,21806,6028,-86,-14,-18
32767,21352,6196,-135,-19,-18
32767,20824,6190,-65,-30,-7
32767,21022,6078,74,-34,3
32767,22018,5936,93,-19,-24
32767,22416,5874,-55,-4,-54
32767,21846,6048,-168,16,-42
32767,21332,6232,-131,18,-14
32767,21564,6294,-32,-4,-1
32767,21916,6258,-62,-28,-2
32767,21768,6068,-135,-45,7
32767,21590,5966,-185,-33,1
32767,21406,5916,-200,-17,-3
32767,21230,5910,-205,5,-6
32767,21076,6114,-204,23,-27
32767,21406,6328,-202,-8,-38
32767,21162,6288,-133,-21,-6
32767,21302,6140,-54,-14,5
32767,21652,5930,-27,14,21
32767,21606,5978,-139,54,21
32767,20888,6446,-243,45,3
32767,20124,6868,-213,13,9
32767,20126,6840,-83,-36,4
32767,20784,6172,-2,-93,-30
32767,20822,5708,0,-74,-27
32767,20612,5752,42,-38,-19
32767,20930,6066,125,-34,-4
32767,21698,6168,115,-24,22
32767,21612,6130,-16,-31,11
32767,21276,5960,-75,-19,-25
32767,21362,5812,-49,9,-23
32767,21524,6194,-42,37,17
32767,21088,6364,-75,19,13
32767,20592,6432,-52,-14,13
32767,20714,6466,18,-46,17
32767,21066,6240,21,-71,-9
32767,21090,5968,-12,-68,-27
32767,20916,5900,-19,-39,-22
32767,20668,5982,44,-11,-9
32767,21574,6340,90,-3,-24
32767,21744,6412,-27,-28,-29
32767,21162,6474,-73,-48,-19
32767,20914,6258,-4,-74,-5
32767,21190,6016,85,-71,4
32767,21778,5920,59,-58,-5
32767,21700,5936,-59,-36,-11
32767,21180,6132,-137,-24,-16
32767,20570,6222,-68,-29,-6
32767,20790,6182,39,-47,-2
32767,21364,6098,63,-51,-9
32767,21554,6076,-8,-45,-22
32767,21342,6070,-69,-29,-40
32767,21184,6216,-48,-23,-30
32767,21304,6346,-13,-22,-12
32767,21468,6380,-14,-41,-10
32767,21458,6254,-76,-68,-16
32767,21146,6052,-98,-75,-1
32767,20984,5874,-2,-46,-4
32767,21348,5928,-13,-24,-10
32767,21102,6082,-74,-2,-12
32767,20978,6302,-72,-3,-27
32767,21086,6480,-26,-27,-24
32767,21326,6378,-13,-46,-8
32767,21282,6206,-17,-65,-7
32767,21194,5912,-16,-51,-13
32767,21194,5830,-8,-18,-4
32767,21118,6014,-15,-1,-10
32767,21068,6244,-30,4,-23
32767,21066,6230,-45,-11,-32
32767,21296,6318,-29,-23,-38
32767,21548,6152,-31,-32,-20
32767,21430,6068,-49,-30,1
32767,21202,6154,-55,-30,-2
32767,21066,6192,-20,-33,7
32767,21088,6230,10,-35,11
32767,21446,6316,-19,-59,3
32767,21230,6198,-73,-73,-1
32767,20888,5938,-60,-70,-12
32767,20870,5820,-2,-47,-12
32767,21132,5982,29,-28,-9
32767,21420,6228,8,-20,-19
32767,21432,6446,-23,-29,-15
32767,21462,6238,-54,-41,-13
32767,21278,5880,-94,-33,-4
32767,21066,5898,-101,-14,0
32767,20912,6108,-69,-3,2
32767,21022,6264,-26,-3,1
32767,21248,6296,-28,-7,-13
32767,21382,6218,-50,-13,-24
32767,21296,6232,-79,-24,-22
32767,21124,6162,-103,-39,-10
32767,20628,6258,-108,-52,-16
32767,20576,6286,-25,-60,-9
32767,21134,6090,32,-63,-11
32767,21464,5904,5,-35,-21
32767,21390,5856,-60,-10,-19
32767,21106,6254,-98,-9,-18
32767,20948,6406,-76,-20,-16
32767,21172,6278,-45,-54,-7
32767,21072,6142,-32,-55,11
32767,20832,6030,-17,-53,21
32767,20906,6030,2,-35,5
32767,21174,5978,-21,-27,-16
32767,21174,6126,-71,-13,-11
32767,20948,6116,-84,-8,-11
32767,20866,6206,-41,-2,-19
32767,21140,6412,31,-24,7
32767,21390,6512,2,-52,-5
32767,21208,6428,-58,-74,-24
32767,21050,6134,-74,-86,-13
32767,20842,5938,-55,-68,-9
32767,20794,5848,-20,-43,-17
32767,20898,6046,1,-18,-20
32767,20940,6368,-2,-23,-19
32767,21028,6400,3,-47,-20
32767,21248,6212,-5,-61,-40
32767,21458,6136,-23,-58,-23
32767,21366,6092,-56,-56,5
32767,21014,6088,-63,-52,2
32767,21062,6136,-17,-50,-8
32767,21222,6102,-13,-50,2
32767,20790,6210,-28,-55,-13
32767,20972,6004,9,-50,-4
32767,21136,5968,1,-37,-13
32767,21244,6092,-35,-30,-26
32767,21112,6246,-52,-30,-18
32767,20978,6350,-17,-56,2
32767,21116,6146,-1,-65,-6
32767,21268,5934,-21,-56,-6
32767,21152,5820,-64,-30,-5
32767,20916,6070,-72,-17,-15
32767,20768,6320,-41,-22,-17
32767,20836,6272,-10,-31,-22
32767,21136,6198,-11,-46,-22
32767,21088,6218,-38,-44,-26
32767,20996,6196,-35,-50,-20
32767,21110,6222,-8,-50,-12
32767,21198,6016,4,-45,-8
32767,21294,6060,-13,-30,-9
32767,21232,6106,-61,-23,-18
32767,21028,6188,-96,-20,-18
32767,20824,6410,-74,-37,-11
32767,20900,6372,11,-67,0
32767,21222,6022,31,-63,1
32767,21374,5866,-25,-35,-8
32767,21094,6048,-105,-26,-18
32767,20654,6276,-99,-24,-20
32767,20722,6352,-23,-43,-13
32767,21096,6128,23,-48,-9
32767,21350,5916,9,-30,-1
32767,21246,6180,-46,-26,0
32767,21064,6366,-78,-33,-8
32767,20848,6410,-85,-61,-10
32767,20758,6268,-29,-78,5
32767,20832,5876,31,-62,2
32767,21058,5862,43,-29,-11
32767,21298,5974,2,-10,-14
32767,21146,6482,-106,-24,-19
32767,20738,6508,-89,-54,-19
32767,20700,6208,6,-72,-12
32767,21108,5908,71,-59,2
32767,21452,6022,35,-42,-4
32767,21468,6266,-61,-40,-3
32767,20984,6234,-121,-48,2
32767,20596,6160,-97,-62,-7
32767,20820,5806,17,-40,-12
32767,21334,5986,43,-18,-4
32767,21512,6188,-9,-1,-2
32767,21268,6486,-86,-15,-6
32767,20832,6542,-94,-50,-5
32767,20784,6282,-48,-76,2
32767,20824,5934,-12,-73,-1
32767,20910,5776,10,-50,-4
32767,20934,6056,21,-20,1
32767,21144,6348,19,-26,-4
32767,21334,6254,-29,-37,-12
32767,21072,6130,-77,-41,-19
32767,20798,6080,-52,-33,-22
32767,20942,6046,20,-28,-14
32767,21194,6342,62,-27,6
32767,21464,6268,32,-31,16
32767,21092,6182,-66,-64,2
32767,20764,6096,-73,-54,-15
32767,20730,5910,-34,-40,-15
32767,20820,6044,26,-14,-7
32767,21248,6594,42,-32,-2
32767,21472,6416,-24,-73,2
32767,21246,5984,-71,-85,-11
32767,21004,5704,-59,-53,-19
32767,21102,5776,-30,-18,-12
32767,21280,6120,-17,-1,-1
32767,21312,6452,-37,-10,5
32767,21024,6450,-53,-36,11
32767,20868,6076,-24,-49,6
32767,20950,5986,-16,-39,-8
32767,21084,6128,-27,-34,-21
32767,21004,6256,-31,-36,-14
32767,20946,6228,1,-35,-1
32767,21090,6042,43,-36,0
32767,21456,6150,33,-30,-3
32767,21550,6284,-66,-35,-16
32767,20836,6234,-124,-38,-24
32767,20688,6188,-41,-39,-21
32767,21030,6166,51,-46,-2
32767,21392,6246,63,-53,8
32767,21476,6306,4,-61,5
32767,21140,6162,-51,-64,0
32767,20824,6034,-34,-58,-4
32767,21060,6052,-1,-48,-21
32767,21272,6104,-4,-35,-6
32767,21232,6328,7,-46,17
32767,21316,6280,29,-66,27
32767,21456,6276,12,-77,25
32767,21478,6188,-56,-97,10
32767,21252,6122,-100,-94,2
32767,20846,5844,-92,-72,0
32767,20646,5714,0,-44,22
32767,21100,6016,69,-15,29
32767,21490,6462,6,-30,-5
32767,21484,6334,-75,-46,-19
32767,21338,6192,-110,-55,-10
32767,21102,5842,-97,-43,-3
32767,21000,5800,-48,-26,12
32767,20968,6188,-30,-22,17
32767,20878,6304,-23,-26,4
32767,21054,6208,-18,-39,-27
32767,21238,5992,-25,-26,-30
32767,21314,6122,-36,-13,-11
32767,21230,6290,-49,-19,-4
32767,21058,6516,-48,-47,2
32767,21060,6392,-22,-79,12
32767,21170,6060,-17,-82,-3
32767,21206,5922,-23,-51,-10
32767,21212,6192,-29,-49,-1
32767,21396,6882,-25,-96,27
32767,21466,6672,-28,-147,43
32767,21450,6312,-46,-186,43
32767,21220,5514,-31,-164,62
32767,20970,5294,-29,-83,57
32767,20726,5576,-13,-11,28
32767,20954,6344,-50,22,-17
32767,20900,6616,-75,0,-12
32767,20812,6478,-56,-40,-12
32767,20922,6182,5,-64,-17
32767,21250,5954,36,-56,-13
32767,21580,5918,29,-31,-12
32767,21634,6068,-36,-18,-23
32767,21264,6248,-74,-11,-15
32767,20996,6324,-38,-36,10
32767,20988,6228,-2,-56,16
32767,21256,5946,-18,-43,-13
32767,21134,5890,-49,-11,-22
32767,20976,6232,-44,1,-17
32767,21012,6742,16,-45,5
32767,21260,6670,56,-105,22
32767,21454,6238,62,-139,38
32767,21480,5788,38,-133,41
32767,21266,5564,1,-81,28
32767,21296,5672,-13,-33,10
32767,21236,6070,-72,-4,-3
32767,20780,6400,-83,-31,-4
32767,20786,6394,-27,-60,1
32767,21046,6146,31,-73,1
32767,21564,5958,12,-62,-18
32767,21552,5904,-52,-43,-20
32767,21268,6060,-68,-30,-14
32767,21050,6330,-27,-35,-12
32767,21324,6248,22,-40,4
32767,21598,6022,-53,-29,-1
32767,21150,6102,-122,-34,-10
32767,20730,6300,-106,-39,-3
32767,20566,6328,-13,-54,5
32767,21148,6250,52,-63,-6
32767,21532,5988,16,-50,-16
32767,21468,6024,-63,-36,-22
32767,21132,6286,-79,-39,-15
32767,21074,6282,-18,-58,-1
32767,21312,5976,1,-54,-7
32767,21410,5880,-31,-39,-13
32767,21318,6078,-59,-21,-10
32767,21192,6302,-54,-30,-8
32767,21258,6400,-36,-43,-1
32767,21354,6260,-47,-62,4
32767,21362,6244,-66,-70,7
32767,21168,6188,-64,-81,18
32767,20816,6238,-12,-94,34
32767,20426,6330,111,-120,63
32767,19664,6462,339,-160,94
32767,20206,6442,681,-211,124
32767,21618,6380,850,-254,163
32767,22262,6276,848,-265,210
32767,22412,6194,745,-297,178
32767,22894,5970,673,-318,217
32767,23314,5804,609,-333,285
32767,23086,5630,516,-322,264
32767,22700,5572,467,-282,223
32767,22308,5746,502,-261,236
32767,22374,5754,627,-225,248
32767,22590,6028,685,-241,235
32767,21524,6062,893,-304,228
32767,21176,5976,1288,-339,253
32767,21418,5330,1769,-374,278
32767,23340,4864,2132,-355,253
32767,26102,4470,2043,-330,186
32767,26554,4200,1739,-319,114
32767,24836,4190,1672,-316,101
32767,24116,4188,1994,-280,124
32767,27858,3814,2275,-255,91
32767,30886,2960,1896,-237,16
32767,30878,2672,1257,-235,-19
32767,28706,2392,976,-202,61
32767,26970,2692,1102,-148,85
32767,26238,2896,1466,-110,57
32767,30514,2060,2030,-78,111
32767,30384,1694,1819,-109,98
32767,29944,1698,1819,-155,130
32767,29740,1280,1901,-215,118
32767,29958,554,2111,-196,111
32767,31030,-176,2318,-165,148
32767,32767,-912,2171,-154,117
32767,32767,-1400,1449,-159,86
32767,32592,-1394,1146,-154,159
32767,30548,-1486,1409,-109,233
32767,32238,-2162,1807,-78,177
32767,32767,-2964,1711,-34,97
32767,32767,-2804,1580,14,167
32767,32078,-2870,1857,16,285
32767,32767,-3690,2240,-49,301
32767,32767,-4388,1902,-66,260
32767,32767,-4940,1186,-95,148
32767,32767,-4836,818,-97,180
32767,32092,-5006,1137,-80,337
32767,32414,-5212,1613,-76,369
32767,32767,-5976,1819,-63,299
32767,32767,-6402,1698,-34,264
32767,32767,-6664,1446,-48,265
32767,32767,-6922,1373,-108,287
32767,32767,-7286,1465,-132,317
32767,32767,-7974,1476,-129,286
32767,32767,-8710,1398,-90,212
32767,32767,-9026,1345,-16,163
32767,32767,-9408,1429,-1,143
32767,32767,-9796,1364,-19,142
32767,32767,-10036,987,-62,88
32767,32767,-10050,934,-71,148
32767,32767,-10396,945,-105,229
32767,32767,-10870,754,-122,191
32767,32767,-10966,517,-115,84
32767,32767,-11080,519,-87,57
32767,32767,-11310,705,-58,95
32767,32767,-11508,826,-55,137
32767,32767,-11790,522,-122,101
32767,32767,-11928,149,-139,41
32767,32767,-12086,-129,-130,-17
32767,32767,-12182,-189,-90,-73
32767,32767,-11860,66,-46,-86
32767,32767,-11602,438,-26,-15
32767,32767,-11520,613,-6,17
32767,32767,-11648,503,-22,-50
32767,32767,-11874,231,-90,-117
32767,32767,-12124,151,-120,-103
32767,32767,-12498,97,-132,-120
32767,32767,-12790,-25,-134,-125
32767,32767,-12900,-132,-107,-95
32767,32767,-12858,-220,-76,-79
32767,32767,-12508,-90,-25,-30
32767,32767,-12130,84,-17,11
32767,32767,-11996,-38,-40,-36
32767,32767,-11946,-139,-52,-66
32767,32767,-12038,-193,-70,-78
32767,32767,-12146,-144,-56,-73
32767,32767,-12130,-15,-53,-44
32767,32767,-12148,-25,-71,-21
32767,32767,-12220,-270,-61,-58
32767,32767,-11954,38,-28,-3
32767,32767,-11882,208,-8,11
32767,32767,-11912,80,-24,-25
32767,32767,-12106,-193,-57,-65
32767,32767,-12118,-347,-66,-91
32767,32767,-11984,-328,-52,-70
32767,32767,-11716,123,-10,24
32767,32767,-11768,236,-26,34
32767,32767,-11770,63,-64,7
32767,32767,-11778,-197,-92,-24
32767,32767,-11964,-310,-85,-61
32767,32767,-12052,-150,-44,-50
32767,32767,-11892,212,19,-5
32767,32767,-12012,367,55,-12
32767,32767,-12036,211,38,-88
32767,32767,-12058,-37,-11,-102
32767,32767,-12112,-196,-31,-102
32767,32767,-12252,-274,-42,-110
32767,32767,-12206,-168,-34,-64
32767,32767,-11702,9,-16,-3
32767,32767,-11530,70,-23,2
32767,32767,-11602,-30,-53,-16
32767,32767,-11680,-200,-89,-27
32767,32767,-11922,-126,-108,-15
32767,32767,-12202,-34,-95,-15
32767,32767,-12284,-17,-65,-11
32767,32767,-12076,-4,-35,6
32767,32767,-11930,-50,-37,-17
32767,32767,-11822,-125,-47,-50
32767,32767,-11836,-192,-56,-57
32767,32767,-11992,-172,-40,-58
32767,32767,-11804,-123,-23,-41
32767,32767,-11544,-45,-25,-9
32767,32767,-11542,-71,-48,-1
32767,32767,-11636,-73,-63,-7
32767,32767,-11668,-95,-60,-24
32767,32767,-11760,-96,-38,-49
32767,32767,-11462,-96,-61,-38
32767,32767,-11526,-54,-75,3
32767,32767,-11628,-54,-90,18
32767,32767,-11814,-83,-80,6
32767,32767,-11916,-85,-47,-16
32767,32767,-11858,-40,-19,-45
32767,32767,-11802,-41,-7,-55
32767,32767,-11620,-112,-28,-42
32767,32767,-11384,-165,-51,-13
32767,32767,-11372,-168,-46,-7
32767,32767,-11474,-117,-33,-22
32767,32767,-11522,-46,-20,-37
32767,32767,-11336,3,-30,-20
32767,32767,-11438,-10,-54,2
32767,32767,-11374,-67,-59,6
32767,32767,-11328,-111,-66,3
32767,32767,-11452,-120,-59,-30
32767,32767,-11572,-83,-42,-54
32767,32767,-11602,-30,-30,-36
32767,32767,-11430,-20,-19,-1
32767,32767,-11234,-63,-32,-17
32767,32767,-11260,-142,-54,-26
32767,32767,-11328,-123,-56,-38
32767,32767,-11378,-47,-35,-24
32767,32767,-11348,5,-17,-10
32767,32767,-11262,-18,-43,-16
32767,32767,-11094,-134,-57,-35
32767,32767,-11240,-253,-91,-45
32767,32767,-11332,-323,-65,-58
32767,32767,-11332,-161,-14,-47
32767,32767,-11130,73,27,-23
32767,32767,-10950,225,9,0
32767,32767,-10944,83,-38,-13
32767,32767,-11070,-173,-71,-33
32767,32767,-11124,-232,-67,-18
32767,32767,-11120,-88,-46,1
32767,32767,-11142,28,-26,-24
32767,32767,-11112,23,-37,-18
32767,32767,-11126,-34,-60,3
32767,32767,-11222,-117,-58,-2
32767,32767,-11280,-155,-42,-26
32767,32767,-11166,-133,-7,-56
32767,32767,-11036,-58,3,-59
32767,32767,-10954,-1,-5,-54
32767,32767,-10834,3,-34,-27
32767,32767,-10910,-58,-47,-17
32767,32767,-11016,-180,-51,-40
32767,32767,-11146,-243,-35,-71
32767,32767,-11090,-156,-16,-57
32767,32767,-10770,20,-14,-14
32767,32767,-10690,149,-21,26
32767,32767,-10900,78,-54,34
32767,32767,-10950,-143,-66,-2
32767,32767,-11046,-192,-65,-35
32767,32767,-10954,-82,-54,-27
32767,32767,-10910,68,-34,3
32767,32767,-10844,73,-42,4
32767,32767,-10878,-61,-48,-12
32767,32767,-10920,-186,-55,-51
32767,32767,-11112,-248,-43,-108
32767,32767,-10954,-276,-32,-128
32767,32767,-10628,-110,-27,-49
32767,32767,-10320,104,-37,6
32767,32767,-10302,144,-66,49
32767,32767,-10520,25,-105,41
32767,32767,-10732,-125,-139,-9
32767,32767,-10970,-154,-138,-29
32767,32767,-11192,12,-72,7
32767,32767,-11084,116,-42,26
32767,32767,-10882,100,-27,29
32767,32767,-10780,-15,-45,11
32767,32767,-10770,-116,-59,-3
32767,32767,-10730,-103,-52,-10
32767,32767,-10826,-8,-48,-10
32767,32767,-11070,85,-25,6
32767,32767,-10912,87,-34,31
32767,32767,-10816,-23,-66,17
32767,32767,-10918,-149,-75,3
32767,32767,-10890,-146,-59,1
32767,32767,-10976,-12,-24,-4
32767,32767,-10860,146,-9,21
32767,32767,-10726,117,-42,29
32767,32767,-10734,-59,-63,11
32767,32767,-10934,6,-31,-9
32767,32767,-10878,121,-24,17
32767,32767,-10706,105,-38,29
32767,32767,-10734,-14,-65,25
32767,32767,-10870,-138,-73,-13
32767,32767,-11100,-130,-66,-35
32767,32767,-11104,-61,-27,-33
32767,32767,-11104,89,-5,8
32767,32767,-10896,124,-7,38
32767,32767,-10666,14,-48,24
32767,32767,-10698,-146,-75,-7
32767,32767,-10894,-174,-65,-18
32767,32767,-11020,-20,-18,-10
32767,32767,-10856,91,2,-20
32767,32767,-10846,110,-24,-7
32767,32767,-10720,-17,-58,-14
32767,32767,-10862,-166,-87,-32
32767,32767,-10962,-191,-75,-26
32767,32767,-11022,-58,-37,2
32767,32767,-11010,117,-23,18
32767,32767,-10982,112,-38,21
32767,32767,-10926,-52,-57,3
32767,32767,-10940,-198,-73,-22
32767,32767,-10910,-180,-48,-29
32767,32767,-10924,-23,-26,-16
32767,32767,-10924,127,-16,7
32767,32767,-10678,130,-41,27
32767,32767,-10712,-71,-74,7
32767,32767,-10934,-187,-86,-28
32767,32767,-11078,-151,-58,-46
32767,32767,-11078,8,-21,-22
32767,32767,-10890,144,-8,12
32767,32767,-10630,117,-48,29
32767,32767,-10646,-36,-82,22
32767,32767,-10908,-175,-102,-4
32767,32767,-11256,-137,-56,-37
32767,32767,-11298,29,-9,-24
32767,32767,-11026,147,6,3
32767,32767,-10816,74,-15,12
32767,32767,-10742,-104,-41,6
32767,32767,-10664,-203,-63,-18
32767,32767,-10780,-154,-53,-47
32767,32767,-10810,11,-38,-32
32767,32767,-10800,129,-40,14
32767,32767,-10824,57,-65,28
32767,32767,-10938,-77,-76,20
32767,32767,-11056,-133,-66,4
32767,32767,-10894,-73,-52,-15
32767,32767,-10944,29,-53,-9
32767,32767,-10940,73,-65,15
32767,32767,-10986,17,-64,23
32767,32767,-11028,-85,-57,-5
32767,32767,-11132,-105,-44,-37
32767,32767,-11018,-68,-20,-43
32767,32767,-10870,2,-11,-11
32767,32767,-10752,35,-13,3
32767,32767,-10800,-8,-31,-8
32767,32767,-10732,-69,-53,-19
32767,32767,-10792,-106,-79,-24
32767,32767,-10858,-64,-78,-1
32767,32767,-10978,34,-61,39
32767,32767,-11124,46,-39,11
32767,32767,-11048,-49,-57,-20
32767,32767,-10788,-156,-58,-30
32767,32767,-10866,-96,-55,1
32767,32767,-10906,16,-22,12
32767,32767,-10868,90,-4,-1
32767,32767,-10770,71,-15,-14
32767,32767,-10824,-40,-55,-14
32767,32767,-10770,-135,-90,-10
32767,32767,-10886,-125,-91,4
32767,32767,-11060,22,-46,13
32767,32767,-11128,101,-9,-6
32767,32767,-11170,60,0,-26
32767,32767,-10896,-44,-38,-20
32767,32767,-10800,-130,-55,0
32767,32767,-10852,-120,-53,7
32767,32767,-10872,-50,-30,-5
32767,32767,-10882,51,-16,-8
32767,32767,-10736,68,-30,-10
32767,32767,-10910,-48,-63,-1
32767,32767,-10916,-140,-73,3
32767,32767,-10790,-93,-61,3
32767,32767,-10966,20,-37,-6
32767,32767,-10796,57,-51,-10
32767,32767,-11010,-4,-69,9
32767,32767,-10552,-76,-56,13
32767,32767,-11006,-40,-54,14
32767,32767,-11052,-9,-42,-11
32767,32767,-10980,28,-38,-33
32767,32767,-10950,-16,-46,-28
32767,32767,-10888,-80,-48,-24
32767,32767,-10872,-100,-56,-18
32767,32767,-10808,-34,-43,-6
32767,32767,-10940,46,-33,-4
32767,32767,-11010,7,-36,-33
32767,32767,-11046,-93,-56,-44
32767,32767,-10932,-143,-62,-19
32767,32767,-10726,-24,-59,26
32767,32767,-10848,71,-49,24
32767,32767,-10994,50,-33,-5
32767,32767,-11054,-54,-28,-33
32767,32767,-10912,-130,-45,-57
32767,32767,-10916,-124,-56,-50
32767,32767,-10866,-64,-52,-7
32767,32767,-10836,14,-34,20
32767,32767,-10838,37,-33,9
32767,32767,-10802,-2,-53,-8
32767,32767,-10716,-85,-75,-11
32767,32767,-10904,-104,-87,-3
32767,32767,-11130,-91,-65,-16
32767,32767,-11010,-68,-29,-36
32767,32767,-10876,-40,7,-40
32767,32767,-10666,28,-20,-2
32767,32767,-10618,-8,-42,-9
32767,32767,-10750,-109,-66,-28
32767,32767,-10830,-180,-77,-23
32767,32767,-10790,-182,-60,-30
32767,32767,-10736,-87,-58,-16
32767,32767,-10858,-81,-58,-13
32767,32767,-10666,-133,-62,-29
32767,32767,-10542,-203,-97,-39
32767,32767,-10496,-560,-171,-131
32767,32767,-10660,-773,-158,-233
32767,32767,-10708,-1005,-120,-280
32767,32767,-10470,-996,-77,-235
32767,32767,-9800,-703,-3,-204
32767,32767,-9176,-263,33,-140
32767,32767,-8812,-28,13,-88
32767,32767,-8610,-139,-52,-90
32767,32767,-8864,-600,-181,-119
32767,32767,-9198,-975,-225,-159
32767,32767,-9302,-1175,-206,-197
32767,32767,-9114,-909,-132,-186
32767,32767,-8892,-468,-70,-144
32767,32767,-8510,-160,-18,-98
32767,32767,-7934,-151,-47,-51
32767,32767,-7690,-426,-128,-29
32767,32767,-7836,-989,-196,-77
32767,32767,-8100,-1356,-190,-175
32767,32767,-8068,-1581,-131,-276
32767,32767,-7702,-1690,-43,-373
32767,32767,-7044,-1742,27,-441
32767,32767,-5978,-1746,44,-433
32767,32767,-5168,-1722,39,-412
32767,32767,-4618,-1650,38,-393
32767,32767,-4226,-1458,7,-355
32767,32767,-3860,-1375,-64,-324
32767,32767,-3566,-1427,-122,-295
32767,32767,-3406,-1520,-125,-278
32767,32767,-3274,-1571,-102,-270
32767,32767,-3118,-1514,-66,-268
32767,32767,-2870,-1394,-30,-274
32767,32767,-2380,-1370,-40,-259
32767,32767,-1706,-1343,-54,-197
32767,32767,-1374,-1326,-58,-147
32767,32704,-1194,-1290,-65,-102
32767,32767,-1148,-1316,-48,-107
32767,32767,-984,-1493,-30,-143
32767,32180,-366,-1687,-35,-168
32767,31122,-66,-1644,-24,-160
32767,31542,188,-1498,2,-147
32767,32536,200,-1600,28,-152
32767,32767,278,-1969,42,-200
32767,32752,572,-2501,51,-229
32767,29996,1234,-2621,35,-142
32767,27492,2212,-2255,31,19
32767,26110,2732,-1630,45,167
32767,26228,3272,-1080,40,201
32767,28044,3522,-787,27,137
32767,28982,3544,-977,15,96
32767,27860,3580,-1257,18,41
32767,26494,3674,-1282,3,10
32767,25824,3788,-1116,9,8
32767,26336,4106,-969,23,-1
32767,26358,4526,-927,4,-18
32767,25816,4692,-819,-35,19
32767,25730,4550,-573,-68,49
32767,26718,4134,-497,-59,1
32767,27480,3990,-648,-34,-36
32767,27256,4172,-894,22,-39
32767,26264,4566,-1002,37,-38
32767,26216,5094,-934,-4,48
32767,27388,5008,-1043,-26,74
32767,27354,4998,-1343,-59,108
32767,25858,4986,-1586,-70,174
32767,23674,5268,-1584,-88,225
32767,22500,5462,-1360,-83,263
32767,22220,5460,-1192,-80,211
32767,22282,5484,-1170,-46,101
32767,21658,5252,-1206,-21,11
32767,20724,5552,-1130,23,10
32767,20016,5954,-835,25,61
32767,20384,6274,-528,22,55
32767,21064,6136,-395,10,-53
32767,21638,5946,-404,20,-131
32767,22002,5770,-489,54,-174
32767,21520,6058,-655,72,-246
32767,20648,6368,-511,35,-145
32767,20724,6738,-225,9,-34
32767,21780,6534,-145,-33,-123
32767,22852,6054,-367,-52,-258
32767,22572,5830,-695,-38,-238
32767,20490,5732,-824,-7,-186
32767,19040,5966,-559,10,-128
32767,19812,6082,-92,74,-60
32767,20854,6102,-96,93,-137
32767,21116,6168,-307,95,-246
32767,20404,6218,-530,85,-322
32767,19694,6084,-557,84,-339
32767,19486,6154,-446,106,-346
32767,19520,6384,-248,93,-245
32767,19838,6476,28,54,-79
32767,20960,6614,108,38,-72
32767,21410,6528,-49,7,-129
32767,20780,6052,-228,-14,-102
32767,20030,6242,-262,-2,-69
32767,19482,6414,-199,-16,-60
32767,19184,6204,-18,-16,-17
32767,19800,6198,124,-1,28
32767,20498,6158,58,8,-9
32767,20150,6440,-89,-6,-31
32767,19754,6482,-90,-26,-16
32767,19732,6552,-8,-49,-17
32767,20254,6240,37,-50,-32
32767,20328,5930,27,-40,-21
32767,20200,5766,28,-9,8
32767,20150,6460,40,-5,19
32767,20280,6670,40,-27,25
32767,20424,6384,-24,-53,4
32767,20404,5932,-104,-47,-29
32767,19844,5884,-113,-14,-23
32767,19402,6330,-12,0,5
32767,19696,6690,146,-1,35
32767,20636,6648,161,-36,24
32767,20856,6242,38,-61,14
32767,20228,5942,-76,-53,-4
32767,19514,6354,96,-27,18
32767,19822,6460,246,-35,50
32767,20274,6426,327,-41,88
32767,20872,6280,345,-74,144
32767,20728,6220,266,-102,101
32767,20818,5978,201,-91,30
32767,21426,5866,93,-53,11
32767,21054,5856,-95,-7,-17
32767,20166,6382,-18,6,-2
32767,20652,6580,74,-19,25
32767,21042,6566,50,-55,13
32767,21156,6260,-30,-68,4
32767,21022,5922,-127,-53,-27
32767,20618,5910,-156,-10,-33
32767,20272,6104,-109,11,-8
32767,20132,6572,-13,0,0
32767,20696,6744,35,-39,-3
32767,21062,6470,-15,-72,-9
32767,20928,6024,-103,-80,-19
32767,20600,5834,-123,-45,-14
32767,20302,6054,-84,-29,-4
32767,20464,6510,9,-19,2
32767,20692,6390,9,-35,12
32767,20720,6190,-32,-40,-13
32767,20560,5980,-53,-32,-29
32767,20258,6090,-33,-17,-7
32767,20260,6300,34,-16,9
32767,20578,6448,68,-33,-2
32767,20900,6282,39,-55,7
32767,20968,6092,-2,-59,11
32767,20984,6018,-63,-45,-6
32767,20684,6120,-100,-29,-8
32767,20384,6186,-83,-11,-7
32767,20366,6298,-25,-12,-6
32767,20636,6394,0,-22,-1
32767,20840,6226,-29,-33,-3
32767,20526,6310,-72,-48,-2
32767,20354,6286,-11,-45,13
32767,20720,6170,25,-36,8
32767,20802,6176,-18,-32,-8
32767,20710,6242,-59,-30,-8
32767,20644,6314,-95,-31,-19
32767,20420,6180,-80,-36,-24
32767,20528,6206,-32,-27,-16
32767,20810,6242,3,-25,3
32767,20768,6232,-23,-25,3
32767,20568,6318,-47,-36,4
32767,20456,6288,-58,-34,-3
32767,20550,6220,-70,-38,-15
32767,20320,6260,-53,-40,-9
32767,20434,6274,7,-45,3
32767,20612,6118,14,-35,-9
32767,20920,6136,-33,-25,-20
32767,20722,6274,-88,-28,-11
32767,20470,6340,-81,-31,-8
32767,20486,6290,-64,-37,-15
32767,20362,6250,-32,-41,-15
32767,20558,6236,6,-32,-7
32767,20804,6198,-22,-37,-12
32767,20462,6244,-56,-37,-10
32767,20312,6404,3,-59,11
32767,20714,6268,33,-62,7
32767,21136,6020,-63,-61,-24
32767,20632,5890,-145,-40,-21
32767,20256,5944,-116,-13,-11
32767,20044,6234,-20,5,-1
32767,20476,6536,62,-10,7
32767,20844,6562,-1,-55,-7
32767,20646,6454,-59,-81,-13
32767,20426,6102,-64,-88,-16
32767,20398,5892,-17,-68,-17
32767,20548,5954,28,-34,-7
32767,20854,6112,14,-13,2
32767,20346,6418,-39,-44,7
32767,20470,6348,-12,-60,-2
32767,20284,6244,6,-59,-12
32767,20628,6160,30,-51,-18
32767,20812,6182,5,-44,-21
32767,20924,6158,-42,-33,-17
32767,20662,6166,-103,-38,-17
32767,20140,6128,-57,-30,-5
32767,20298,6242,15,-32,-9
32767,20590,6412,63,-35,-15
32767,21176,6376,27,-48,-14
32767,21056,6234,-72,-65,-10
32767,20602,6100,-104,-61,-4
32767,20308,6060,-61,-48,0
32767,20408,6184,0,-33,5
32767,20614,6232,-6,-20,-6
32767,20744,6326,-45,-23,-18
32767,20656,6344,-86,-30,-10
32767,20298,6274,-92,-30,-4
32767,19976,6178,-44,-39,-11
32767,20210,6172,51,-28,-14
32767,20714,6356,80,-32,-16
32767,21062,6368,38,-42,-18
32767,21080,6304,-43,-70,-7
32767,20752,6204,-71,-73,10
32767,20402,6008,-45,-59,15
32767,20494,5890,-7,-38,1
32767,20658,6034,-32,-18,-6
32767,20348,6200,-63,-4,-7
32767,20254,6372,-44,-9,-15
32767,20602,6528,-7,-45,-14
32767,20656,6374,2,-81,-13
32767,20778,6090,24,-81,-4
32767,21032,5850,7,-56,-3
32767,20880,5938,-71,-27,-14
32767,20476,6174,-103,-7,-15
32767,20160,6328,-60,-9,-4
32767,20284,6482,23,-22,3
32767,20956,6340,44,-49,-5
32767,21128,6282,-27,-68,0
32767,20814,6164,-81,-64,8
32767,20652,5964,-81,-51,0
32767,20396,5920,-55,-14,3
32767,20140,6292,-12,1,11
32767,20206,6638,38,-17,8
32767,20836,6550,32,-51,-7
32767,20898,6072,-75,-78,-20
32767,20518,5876,-79,-62,-15
32767,20366,6012,-1,-35,8
32767,20620,6222,64,-22,17
32767,20874,6440,39,-34,-2
32767,20894,6344,-22,-51,-5
32767,20714,6258,-68,-61,1
32767,20508,5996,-67,-59,-21
32767,20592,6032,-27,-32,-9
32767,20594,6246,-14,-31,14
32767,20540,6334,-15,-31,8
32767,20706,6368,-37,-48,-9
32767,20770,6274,-86,-51,-13
32767,20456,6136,-116,-49,-23
32767,20218,6046,-55,-39,-20
32767,20436,6098,45,-23,0
32767,21012,6336,73,-34,21
32767,21228,6378,5,-45,32
32767,20544,6100,-126,-52,-11
32767,20540,5864,-99,-24,-8
32767,20278,6144,-72,8,13
32767,20072,6526,-8,-12,46
32767,20334,6508,44,-30,62
32767,20602,6244,70,-50,74
32767,20714,5878,40,-26,19
32767,20554,5698,-2,17,-19
32767,20390,5840,7,61,-13
32767,20660,6424,38,66,-23
32767,21198,6676,-10,19,-16
32767,20984,6576,-64,-28,4
32767,20764,6336,-72,-51,13
32767,20838,6176,-67,-52,-1
32767,20782,6084,-77,-37,-6
32767,20640,6068,-96,-24,-5
32767,20370,6410,-104,-28,-7
32767,20162,6408,-73,-42,-5
32767,20268,6266,0,-60,-16
32767,20634,6242,0,-64,-16
32767,20730,6040,-25,-47,-20
32767,20734,5962,-36,-25,-30
32767,20662,5940,-15,1,-18
32767,20502,6192,22,14,4
32767,20372,6454,79,-4,21
32767,20858,6570,124,-40,24
32767,20996,6236,41,-54,9
32767,20794,6008,-44,-47,-23
32767,20632,5902,-64,-19,-37
32767,20700,6150,-61,-13,-31
32767,20512,6372,-37,-23,-12
32767,20524,6514,5,-55,1
32767,20702,6376,15,-83,3
32767,21000,6010,-6,-72,-17
32767,20978,5768,-64,-33,-36
32767,20762,5970,-104,3,-46
32767,20422,6370,-77,3,-26
32767,20402,6650,14,-18,7
32767,20858,6426,28,-56,0
32767,21084,6226,-53,-70,-14
32767,20716,6188,-117,-83,-20
32767,20486,6120,-64,-64,-12
32767,20610,5938,-4,-42,-4
32767,20876,5926,6,-14,1
32767,20884,6242,-60,-6,6
32767,20406,6466,-126,-25,-7
32767,20132,6428,-81,-50,-17
32767,20334,6344,3,-69,-20
32767,20914,6070,49,-64,-15
32767,21088,5842,-25,-24,-13
32767,20850,6142,-71,0,2
32767,20432,6484,-75,3,18
32767,20382,6630,-15,-33,29
32767,20656,6456,0,-67,7
32767,20602,6066,-18,-75,-13
32767,20470,5834,2,-51,-10
32767,20704,5954,32,-23,-4
32767,21048,6284,-41,-12,-18
32767,20688,6394,-85,-28,-12
32767,20414,6304,-45,-38,11
32767,20448,6254,45,-47,14
32767,21082,6360,61,-55,-2
32767,21272,6430,-42,-66,1
32767,20842,6272,-126,-74,3
32767,20172,6036,-86,-59,-7
32767,20576,6092,63,-10,3
32767,20898,6348,20,-7,4
32767,20732,6472,-32,-25,2
32767,20638,6394,-63,-58,-7
32767,20600,6110,-67,-71,-7
32767,20638,5940,-38,-63,1
32767,20680,5854,-6,-31,-1
32767,20790,6072,-16,-7,-12
32767,20738,6412,-49,-10,-27
32767,20748,6612,-60,-42,-22
32767,20682,6438,-54,-80,-8
32767,20666,6058,-29,-91,8
32767,20614,5660,7,-42,16
32767,20698,5890,-15,-6,0
32767,20492,6312,-60,15,-15
32767,20414,6540,-75,-4,-25
32767,20392,6486,-59,-40,-26
32767,20578,6342,1,-56,-17
32767,20710,5994,42,-57,-4
32767,21010,6164,37,-43,-6
32767,21080,6274,-63,-41,-21
32767,20828,6254,-115,-50,-16
32767,20432,6212,-82,-57,13
32767,20194,6176,10,-59,27
32767,20584,6116,77,-54,24
32767,20892,6064,47,-41,14
32767,20994,6238,-57,-39,-9
32767,20526,6192,-128,-46,-24
32767,20220,6150,-90,-44,-26
32767,20292,6072,9,-31,-5
32767,20896,6056,56,-16,-5
32767,21120,6344,-20,-23,-10
32767,20698,6520,-87,-42,1
32767,20230,6366,-69,-64,2
32767,20382,6064,1,-63,-12
32767,20994,5874,-12,-38,-23
32767,20790,5906,-73,-6,-24
32767,20468,6178,-73,9,-18
32767,20250,6526,-26,-5,-11
32767,20598,6528,29,-33,-14
32767,20786,6342,26,-54,-14
32767,21004,6080,5,-56,-9
32767,21136,6086,-56,-49,-9
32767,20552,6216,-100,-50,7
32767,20330,6336,-68,-52,9
32767,20400,6250,-32,-60,-12
32767,20518,6236,-4,-58,-19
32767,20698,6108,26,-56,0
32767,20728,6090,44,-46,10
32767,20784,6348,39,-48,13
32767,20806,6562,21,-70,13
32767,20664,6328,-23,-108,18
32767,20506,6044,-24,-117,11
32767,20358,5910,21,-100,9
32767,20346,5922,121,-76,27
32767,20608,6108,219,-64,45
32767,20498,6348,288,-77,59
32767,20222,6490,429,-125,90
32767,21136,6516,564,-147,117
32767,22626,6236,362,-164,110
32767,22312,5948,100,-171,74
32767,21610,5934,9,-157,78
32767,21204,5904,67,-141,95
32767,21278,6018,137,-124,95
32767,21266,6072,113,-139,90
32767,21192,6146,113,-118,59
32767,21234,6134,163,-130,67
32767,21220,6232,233,-153,88
32767,21222,6284,339,-182,101
32767,21700,6140,425,-193,88
32767,22512,5908,391,-177,68
32767,22812,5742,173,-135,46
32767,21854,5872,124,-117,71
32767,21336,6236,263,-134,90
32767,21546,6242,439,-150,74
32767,22006,5994,533,-159,63
32767,22414,5814,551,-146,60
32767,22612,5712,522,-136,58
32767,22198,5906,544,-150,56
32767,22094,6134,764,-179,80
32767,23486,5732,876,-196,68
32767,25528,5240,641,-169,10
32767,25406,5066,215,-124,-21
32767,23774,5186,34,-86,13
32767,22444,5696,189,-95,56
32767,22160,6020,586,-132,93
32767,24040,5828,861,-164,101
32767,25886,5278,573,-169,63
32767,24870,5234,295,-166,69
32767,23358,5512,287,-173,75
32767,22422,5590,579,-190,78
32767,23210,5478,988,-218,91
32767,25926,4920,1068,-223,65
32767,26664,4500,787,-216,39
32767,23238,4750,801,-262,99
32767,21406,4930,1546,-283,182
32767,24170,4198,2317,-286,171
32767,29050,3608,2324,-225,71
32767,31984,3434,1464,-157,-33
32767,30602,3486,490,-139,-52
32767,26834,3620,152,-127,-48
32767,23944,3612,528,-125,-64
32767,26078,3664,1511,-127,-16
32767,29998,3150,1608,-118,24
32767,31610,2734,1190,-125,6
32767,30346,2690,694,-161,-22
32767,28002,2984,673,-141,22
32767,27932,2980,986,-181,66
32767,29012,2630,1222,-216,61
32767,30254,2208,1249,-232,97
32767,29022,1826,1199,-251,141
32767,28948,1552,1451,-246,144
32767,31028,1056,1538,-263,117
32767,32767,440,1216,-239,80
32767,32767,308,649,-206,25
32767,30874,450,361,-169,13
32767,29738,398,452,-133,-9
32767,29950,348,744,-101,3
32767,30680,270,1094,-74,51
32767,31514,18,1251,-67,53
32767,32732,-196,1225,-88,47
32767,32767,-532,977,-111,35
32767,32767,-672,625,-137,40
32767,31310,-780,606,-137,121
32767,29842,-1018,1029,-125,185
32767,31032,-1550,1535,-128,196
32767,32767,-2180,1541,-103,148
32767,32767,-2442,954,-63,83
32767,32767,-2350,717,-57,38
32767,32026,-2514,908,-66,114
32767,32284,-2806,1281,-81,198
32767,32767,-3232,1475,-89,195
32767,32767,-3742,1318,-95,152
32767,32767,-4142,1008,-84,122
32767,32767,-4332,768,-64,109
32767,32767,-4488,835,-35,116
32767,32767,-4490,975,-21,111
32767,32767,-4790,1047,-11,102
32767,32767,-5114,1115,5,128
32767,32767,-5594,1174,6,155
32767,32767,-5802,1168,9,156
32767,32767,-6042,1105,0,161
32767,32767,-6278,963,-27,154
32767,32767,-6720,878,-11,125
32767,32767,-6948,931,17,110
32767,32767,-7084,1152,28,135
32767,32767,-7490,1225,-1,147
32767,32767,-7686,1084,-9,124
32767,32767,-7914,962,-13,125
32767,32767,-8412,870,-42,161
32767,32767,-8616,927,-17,159
32767,32767,-8902,989,-33,139
32767,32767,-9182,924,-49,120
32767,32767,-9406,775,-50,103
32767,32767,-9356,655,-78,108
32767,32767,-9406,587,-122,138
32767,32767,-9660,614,-136,162
32767,32767,-10134,651,-162,164
32767,32767,-10422,691,-159,151
32767,32767,-10626,746,-146,137
32767,32767,-10806,704,-155,150
32767,32767,-11290,628,-162,137
32767,32767,-11558,544,-155,118
32767,32767,-11792,336,-143,72
32767,32767,-11854,75,-110,2
32767,32767,-11698,142,-38,-4
32767,32767,-11670,336,4,18
32767,32767,-11710,443,38,7
32767,32767,-11554,401,50,-3
32767,32767,-11300,332,41,3
32767,32767,-11266,305,33,16
32767,32767,-11506,316,-35,18
32767,32767,-12252,7,-153,-39
32767,32767,-12326,88,-100,-27
32767,32767,-12214,340,-58,-28
32767,32767,-12162,430,-55,-53
32767,32767,-12290,185,-70,-111
32767,32767,-12682,-126,-99,-156
32767,32767,-13048,-300,-90,-146
32767,32767,-13256,-350,-23,-109
32767,32767,-12784,-271,44,-64
32767,32767,-12094,5,96,-18
32767,32767,-11620,98,76,-24
32767,32767,-11468,-19,15,-69
32767,32767,-11724,-204,-52,-92
32767,32767,-11910,-277,-100,-66
32767,32767,-11976,-113,-90,-15
32767,32767,-12284,129,-52,21
32767,32767,-12344,7,-61,-21
32767,32767,-12398,-190,-65,-62
32767,32767,-12332,-309,-48,-78
32767,32767,-12180,-338,-31,-90
32767,32767,-12080,-271,1,-103
32767,32767,-11642,-153,10,-93
32767,32767,-11564,-61,-5,-76
32767,32767,-11454,-8,-40,-32
32767,32767,-11504,1,-65,-3
32767,32767,-11850,-54,-79,-7
32767,32767,-12000,-96,-68,-25
32767,32767,-12106,-86,-47,-34
32767,32767,-12054,-25,-43,-31
32767,32767,-11874,-17,-33,-27
32767,32767,-11756,-108,-48,-22
32767,32767,-11714,-217,-51,-50
32767,32767,-11724,-300,-61,-81
32767,32767,-11744,-230,-38,-78
32767,32767,-11694,-95,-21,-53
32767,32767,-11434,91,-17,-4
32767,32767,-11366,144,-35,27
32767,32767,-11406,0,-62,12
32767,32767,-11606,-201,-90,-27
32767,32767,-11640,-149,-87,-25
32767,32767,-11784,-2,-70,-8
32767,32767,-11872,81,-43,-4
32767,32767,-11750,51,-24,-1
32767,32767,-11732,-66,-27,-12
32767,32767,-11458,-188,-44,-38
32767,32767,-11482,-230,-60,-50
32767,32767,-11566,-162,-42,-39
32767,32767,-11454,-16,-20,-17
32767,32767,-11396,79,-17,-2
32767,32767,-11378,34,-29,-9
32767,32767,-11368,-68,-62,-15
32767,32767,-11530,-147,-87,-12
32767,32767,-11626,-97,-59,4
32767,32767,-11722,-13,-31,7
32767,32767,-11582,-9,-17,-34
32767,32767,-11412,-63,-32,-37
32767,32767,-11446,-105,-48,-20
32767,32767,-11438,-144,-46,-20
32767,32767,-11488,-136,-28,-31
32767,32767,-11442,-66,-16,-33
32767,32767,-11412,12,-13,-33
32767,32767,-11240,24,-41,-1
32767,32767,-11162,-57,-64,24
32767,32767,-11354,-130,-74,-7
32767,32767,-11494,-131,-64,-34
32767,32767,-11534,-69,-43,-38
32767,32767,-11512,22,-27,-21
32767,32767,-11354,31,-26,-10
32767,32767,-11316,-42,-26,-16
32767,32767,-11168,-159,-62,-44
32767,32767,-11250,-183,-64,-46
32767,32767,-11392,-161,-60,-39
32767,32767,-11328,-83,-31,-26
32767,32767,-11228,58,-14,3
32767,32767,-11236,90,-16,5
32767,32767,-11190,-3,-42,-22
32767,32767,-11260,-222,-71,-48
32767,32767,-11170,-140,-57,-29
32767,32767,-11344,9,-37,-12
32767,32767,-11424,68,-19,-13
32767,32767,-11272,-12,-18,-24
32767,32767,-11058,-145,-46,-39
32767,32767,-11148,-190,-69,-46
32767,32767,-11136,-146,-58,-32
32767,32767,-11242,-71,-23,-30
32767,32767,-11212,19,-6,-23
32767,32767,-10908,45,-24,-9
32767,32767,-10960,-35,-57,-7
32767,32767,-10948,-127,-70,-12
32767,32767,-11158,-154,-74,-16
32767,32767,-11252,-62,-35,-31
32767,32767,-11112,69,-10,-17
32767,32767,-11194,123,-9,3
32767,32767,-10944,4,-38,-1
32767,32767,-10916,-174,-77,-17
32767,32767,-10920,-242,-75,-31
32767,32767,-11100,-119,-51,-37
32767,32767,-11180,45,-23,-21
32767,32767,-11034,129,-13,5
32767,32767,-11040,26,-41,5
32767,32767,-10950,-132,-60,-11
32767,32767,-11022,-214,-76,-40
32767,32767,-11060,-174,-62,-55
32767,32767,-11054,-23,-33,-31
32767,32767,-11044,113,-15,-12
32767,32767,-10992,28,-42,-16
32767,32767,-11092,-171,-77,-34
32767,32767,-11080,-330,-66,-66
32767,32767,-10998,-378,-32,-94
32767,32767,-10814,-210,-16,-75
32767,32767,-10842,-17,5,-64
32767,32767,-10488,103,-12,-33
32767,32767,-10510,66,-34,3
32767,32767,-10602,-125,-73,-11
32767,32767,-10864,-172,-81,-29
32767,32767,-11022,-65,-67,-2
32767,32767,-10986,70,-46,18
32767,32767,-10922,67,-43,7
32767,32767,-10820,-43,-35,-8
32767,32767,-10780,-157,-33,-18
32767,32767,-10758,-157,-31,-33
32767,32767,-10716,-19,-17,-15
32767,32767,-10536,69,-38,5
32767,32767,-10398,53,-70,21
32767,32767,-10660,-42,-88,18
32767,32767,-10944,-114,-84,-10
32767,32767,-11012,-103,-47,-38
32767,32767,-11040,-32,-9,-61
32767,32767,-10950,55,5,-52
32767,32767,-10580,44,-18,-12
32767,32767,-10504,-109,-52,-16
32767,32767,-10476,-167,-68,-10
32767,32767,-10658,-84,-72,9
32767,32767,-10816,44,-42,14
32767,32767,-10954,115,-27,3
32767,32767,-10916,73,-37,-2
32767,32767,-10860,-55,-50,-10
32767,32767,-10762,15,-20,6
32767,32767,-10746,115,-2,4
32767,32767,-10770,82,-22,-7
32767,32767,-10608,-54,-56,-4
32767,32767,-10690,-170,-83,13
32767,32767,-10772,-90,-60,12
32767,32767,-11038,76,-25,7
32767,32767,-10958,163,-5,-2
32767,32767,-10792,91,-31,-3
32767,32767,-10744,-111,-58,-15
32767,32767,-10610,-242,-70,-26
32767,32767,-10684,-197,-58,-19
32767,32767,-10752,34,-36,12
32767,32767,-10784,138,-40,28
32767,32767,-10718,75,-52,19
32767,32767,-10826,-61,-51,-13
32767,32767,-10846,-163,-38,-47
32767,32767,-10716,-150,-32,-56
32767,32767,-10566,-16,-42,-30
32767,32767,-10638,109,-54,9
32767,32767,-10738,38,-64,12
32767,32767,-10860,-76,-69,1
32767,32767,-10872,-111,-71,7
32767,32767,-10902,-52,-62,11
32767,32767,-10916,26,-48,11
32767,32767,-10886,55,-41,3
32767,32767,-10872,13,-35,-12
32767,32767,-10738,-73,-41,-29
32767,32767,-10716,-118,-49,-38
32767,32767,-10698,-90,-52,-17
32767,32767,-10608,0,-53,9
32767,32767,-10724,50,-57,10
32767,32767,-10810,-11,-78,-1
32767,32767,-10740,-94,-79,-15
32767,32767,-10910,-110,-71,-16
32767,32767,-10784,-12,-37,-3
32767,32767,-10772,19,-47,-4
32767,32767,-10788,-66,-59,-22
32767,32767,-10752,-164,-67,-26
32767,32767,-10670,-164,-62,-12
32767,32767,-10660,-124,-53,-16
32767,32767,-10634,-126,-62,-33
32767,32767,-10484,-281,-83,-56
32767,32767,-10334,-560,-124,-92
32767,32767,-10326,-615,-151,-107
32767,32767,-10196,-517,-122,-111
32767,32767,-10090,-402,-88,-120
32767,32767,-10222,-368,-103,-124
32767,32767,-9826,-452,-124,-99
32767,32767,-9438,-621,-163,-94
32767,32767,-9508,-775,-197,-136
32767,32767,-9326,-748,-173,-113
32767,32767,-9066,-492,-126,-77
32767,32767,-9086,-307,-101,-76
32767,32767,-8984,-337,-106,-104
32767,32767,-8930,-624,-165,-117
32767,32767,-8706,-1101,-218,-118
32767,32767,-8818,-1620,-232,-146
32767,32767,-8258,-1928,-170,-201
32767,32767,-7484,-1653,-90,-216
32767,32767,-6394,-960,-35,-154
32767,32767,-5978,-818,-43,-131
32767,32767,-5678,-965,-98,-130
32767,32767,-5708,-1563,-180,-114
32767,32767,-5702,-2184,-188,-174
32767,32767,-5218,-2541,-153,-283
32767,32046,-4322,-2449,-116,-305
32767,31090,-3482,-1950,-69,-235
32767,31208,-3076,-1271,-43,-146
32767,32767,-3002,-740,-53,-90
32767,32767,-3128,-709,-66,-51
32767,32767,-3042,-1365,-28,-38
32767,32767,-2412,-1833,2,-81
32767,31314,-1716,-1838,8,-109
32767,29854,-1122,-1432,19,-72
32767,29730,-694,-850,26,-32
32767,31308,-624,-438,12,-33
32767,32767,-594,-446,1,-37
32767,32767,-820,-919,-5,-48
32767,32767,-532,-1649,12,-92
32767,30852,-282,-1732,45,-102
32767,29318,34,-1460,65,-81
32767,29254,652,-1035,77,-57
32767,30430,1014,-730,65,-48
32767,31882,1012,-700,64,-26
32767,32350,960,-937,74,-29
32767,31880,906,-1332,87,-84
32767,32310,968,-1646,106,-117
32767,31622,1144,-1992,127,-119
32767,29772,1606,-2091,140,-76
32767,28264,2180,-1859,136,13
32767,27152,2772,-1474,139,116
32767,27358,3090,-1114,156,170
32767,28272,3330,-1033,162,126
32767,28350,3732,-1255,163,51
32767,27574,3968,-1462,152,9
32767,26924,4084,-1580,145,-10
32767,26092,4146,-1608,131,-29
32767,25220,4534,-1515,112,-36
32767,24850,4726,-1322,95,-18
32767,24672,4760,-1117,81,-19
32767,24760,4910,-961,70,-37
32767,25588,4826,-904,73,-66
32767,25972,4838,-1013,83,-83
32767,25560,4982,-1139,87,-82
32767,24556,5100,-1128,70,-59
32767,23522,5368,-979,55,-21
32767,23312,5740,-751,42,29
32767,24298,5654,-673,30,14
32767,24196,5604,-807,-3,-46
32767,22920,5644,-799,-12,12
32767,22470,5854,-704,-24,24
32767,22012,5862,-595,-36,-23
32767,22678,6008,-532,-47,-51
32767,22956,5808,-634,-58,-106
32767,22160,5780,-698,-68,-173
32767,21332,5796,-589,-58,-160
32767,21642,5880,-376,-46,-121
32767,22364,5854,-277,-48,-115
32767,22498,5814,-239,-27,-97
32767,23076,5840,-302,-8,-109
32767,22968,5930,-472,13,-182
32767,21574,6326,-690,-22,-156
32767,20988,6440,-495,-56,-49
32767,21316,6266,-300,-91,-29
32767,21622,6068,-244,-102,-47
32767,21386,5840,-265,-75,-48
32767,21222,5850,-290,-31,-83
32767,21554,5826,-347,15,-121
32767,21000,5954,-415,30,-111
32767,19920,6640,-216,10,-4
32767,19974,6740,75,-24,29
32767,21280,6386,210,-59,-29
32767,22372,6142,55,-74,-83
32767,22392,5992,-204,-64,-84
32767,21308,6158,-339,-63,-54
32767,20358,6140,-228,-57,-20
32767,20200,6116,23,-41,7
32767,21608,6198,139,-16,30
32767,21678,6278,-19,-26,7
32767,21186,6296,-146,-59,-14
32767,20836,6114,-160,-61,-20
32767,20812,5984,-123,-51,-25
32767,20674,5798,-44,-16,-19
32767,20646,6042,80,19,0
32767,21488,6444,122,20,-2
32767,21844,6664,-47,-29,-17
32767,21182,6292,-131,-65,-17
32767,20816,6046,-89,-68,-16
32767,20844,5794,5,-39,-7
32767,21136,6016,64,-19,3
32767,21394,6192,45,-1,15
32767,21220,6428,-20,-16,11
32767,21202,6466,-47,-48,2
32767,21242,6084,-83,-60,-19
32767,20852,5996,-87,-48,-19
32767,20460,6192,13,-45,11
32767,20922,6338,146,-43,17
32767,21808,6214,121,-50,2
32767,21904,6100,-26,-44,-2
32767,21100,5962,-136,-32,-2
32767,20544,6440,-24,-30,-4
32767,20846,6512,74,-53,-3
32767,21540,6252,89,-73,-9
32767,21656,5976,-10,-68,-10
32767,21302,5876,-65,-44,-8
32767,21178,6068,-68,-33,-23
32767,20950,6270,-9,-27,-6
32767,21412,6378,32,-51,12
32767,21314,6162,0,-67,15
32767,21124,5986,-7,-58,2
32767,21476,5820,4,-31,-7
32767,21418,5960,-45,-9,2
32767,21134,6318,-50,-10,21
32767,20990,6594,-26,-42,25
32767,21002,6388,22,-72,12
32767,21030,5976,51,-79,3
32767,20970,5858,95,-44,2
32767,21184,6030,149,-22,8
32767,21730,6258,161,-17,16
32767,21998,6184,89,-23,-4
32767,22034,6126,-26,-27,-20
32767,21852,6176,-133,-28,-24
32767,21358,6262,-173,-31,-21
32767,20950,6312,-101,-41,-8
32767,21554,6018,48,-44,17
32767,21810,6112,1,-41,3
32767,21766,6134,-98,-48,-13
32767,21392,6178,-158,-43,-10
32767,21026,6120,-116,-44,3
32767,20914,5984,-24,-26,14
32767,21386,5976,33,-5,3
32767,21700,6190,-27,-11,-5
32767,21284,6418,-98,-30,-6
32767,21056,6548,-103,-66,-8
32767,21148,6180,-54,-89,-15
32767,21174,5818,0,-79,-15
32767,21266,5678,79,-15,1
32767,21680,6058,79,9,2
32767,21916,6532,6,1,17
32767,21272,6802,-76,-56,42
32767,20706,6578,-16,-113,53
32767,20626,5974,119,-129,45
32767,20980,5704,239,-102,28
32767,21694,5266,256,-46,-21
32767,22484,6034,43,10,-28
32767,21872,6276,-147,12,-21
32767,20992,6498,-160,-28,-41
32767,21100,6454,-16,-68,-21
32767,21760,6148,78,-78,-3
32767,22172,5824,37,-63,-17
32767,22136,5796,-54,-28,-28
32767,21738,6104,-113,-23,-5
32767,21596,6248,-136,-32,-1
32767,21208,6282,-133,-54,-5
32767,20898,6020,-55,-52,3
32767,20968,5958,59,-34,6
32767,21644,5948,102,-13,-12
32767,22222,6152,-11,-9,-22
32767,21536,6374,-145,-20,-19
32767,20358,6512,-39,-53,-23
32767,20404,6276,192,-75,-21
32767,21358,5982,371,-81,-31
32767,22378,5766,362,-66,-39
32767,23388,5942,175,-38,-47
32767,22634,6150,-315,-35,-44
32767,21346,6288,-339,-53,-11
32767,20768,6148,-160,-60,29
32767,20988,6008,37,-57,40
32767,21994,5998,58,-39,7
32767,22528,6056,-126,-28,-19
32767,21610,6014,-297,-24,-29
32767,20518,6142,-192,-28,-21
32767,20878,6232,21,-39,-5
32767,21954,6102,65,-37,-10
32767,22088,6058,-56,-34,-20
32767,21512,6078,-129,-18,-20
32767,21012,6268,-76,-16,-15
32767,21038,6480,24,-37,-15
32767,21416,6336,117,-78,17
32767,21390,5930,122,-96,7
32767,21356,5700,137,-71,-15
32767,21946,5708,124,-22,-27
32767,22440,5990,-24,9,-32
32767,21846,6222,-159,10,-29
32767,21278,6398,-148,-21,-25
32767,21230,6416,-32,-53,7
32767,22014,6060,41,-66,-4
32767,22344,5826,-56,-38,-22
32767,21468,6104,-177,0,-7
32767,20774,6358,-95,-8,1
32767,20942,6582,43,-52,8
32767,22148,6276,53,-87,0
32767,22218,5848,-100,-87,-11
32767,21450,5688,-170,-57,-5
32767,20756,5866,-86,-12,1
32767,20806,6058,69,-2,-3
32767,21564,6278,128,-3,-6
32767,21956,6346,29,-27,-13
32767,21416,6282,-79,-57,-38
32767,21072,6118,0,-66,-38
32767,21202,5982,146,-57,-25
32767,22010,6028,211,-39,-24
32767,22922,5972,89,-26,-31
32767,22582,6180,-117,-31,-23
32767,21644,6254,-194,-53,6
32767,21150,6298,-121,-77,22
32767,21412,6082,-31,-88,10
32767,21440,5854,-7,-67,8
32767,21588,5676,-9,-32,0
32767,21774,6044,-49,-6,-11
32767,21884,6334,-115,-13,-21
32767,21550,6262,-145,-31,-19
32767,21346,6144,-82,-42,-5
32767,21362,6012,3,-39,5
32767,22006,6168,24,-39,3
32767,21974,6206,-44,-46,5
32767,21680,6160,-90,-56,4
32767,21298,6100,-89,-65,9
32767,21048,6004,-24,-59,18
32767,21300,5906,45,-45,14
32767,21664,5922,29,-19,-5
32767,21678,5884,-54,0,-26
32767,21410,6438,-118,1,-37
32767,21086,6534,-62,-23,-34
32767,21210,6688,35,-69,-31
32767,21544,6308,106,-96,-31
32767,21718,6004,125,-106,-14
32767,21986,5766,151,-84,1
32767,22284,5740,102,-50,-4
32767,22222,5910,-1,-17,2
32767,21652,6166,-114,-13,-4
32767,21428,6236,-114,-37,-19
32767,21388,6328,-88,-58,-17
32767,21320,6062,-42,-68,-4
32767,21504,5838,-4,-56,-21
32767,21878,5790,27,-23,-25
32767,22180,5998,-11,-4,-18
32767,21836,6394,-97,-11,-1
32767,21404,6464,-100,-47,-7
32767,21208,6190,4,-62,0
32767,21484,5812,84,-50,5
32767,21838,5858,79,-24,-8
32767,21942,6102,21,-15,-18
32767,21796,6294,-26,-28,-13
32767,21622,6392,-28,-54,1
32767,21768,6104,20,-69,5
32767,22070,5728,-15,-53,-11
32767,21846,5824,-85,-18,-22
32767,21568,5970,-82,2,-18
32767,21594,6428,-47,-7,-14
32767,21820,6408,-31,-37,-17
32767,22026,6236,-33,-65,-7
32767,21724,5876,-40,-49,16
32767,21868,5912,-52,-31,-5
32767,21942,5968,-107,-21,-11
32767,21560,5950,-146,-7,3
32767,21132,6086,-122,1,-5
32767,20986,6222,-32,-2,-5
32767,21722,6404,15,-28,-17
32767,21844,6380,-46,-59,-28
32767,21708,6176,-62,-72,-23
32767,21484,5938,-2,-60,-3
32767,21770,5840,72,-32,9
32767,22084,6070,44,-23,14
32767,21978,6338,-62,-39,14
32767,21444,6312,-118,-60,-7
32767,21282,5928,-28,-67,-11
32767,21842,5688,15,-29,-8
32767,21980,5910,-39,-2,-11
32767,21634,6080,-85,8,-7
32767,21204,6406,-58,-10,9
32767,21210,6458,21,-45,9
32767,21720,6250,58,-62,-4
32767,22162,5938,-15,-54,-15
32767,22040,5834,-74,-30,-19
32767,21558,6048,-89,-22,-8
32767,21214,6280,-20,-33,24
32767,21646,6164,21,-45,13
32767,21994,5972,-57,-58,-19
32767,21750,5894,-114,-45,-14
32767,21408,5922,-90,-32,9
32767,21684,6070,-2,-1,10
32767,21922,6102,-49,-3,7
32767,21526,6404,-109,-14,10
32767,21040,6448,-100,-48,0
32767,20834,6314,-11,-75,-6
32767,21498,6040,81,-83,-11
32767,22208,5778,57,-56,-23
32767,22296,5816,-58,-30,-16
32767,21502,6124,-113,-5,6
32767,21162,6350,-46,-27,4
32767,21406,6434,28,-50,4
32767,21842,6214,22,-68,5
32767,21764,5982,-41,-70,-7
32767,21412,5826,-53,-55,-12
32767,21460,5998,-1,-40,-3
32767,21746,6080,16,-31,1
32767,21764,5984,-49,-25,-3
32767,21476,6134,-82,-23,-13
32767,21474,6244,-52,-35,-17
32767,21756,6210,3,-52,0
32767,21890,6044,-2,-61,14
32767,21742,5956,-31,-58,10
32767,21434,6028,-34,-38,2
32767,21658,6070,-26,-30,-6
32767,21552,6136,-76,-31,-11
32767,21216,6344,-63,-58,-5
32767,21190,6306,9,-72,2
32767,21700,5992,50,-82,-6
32767,22210,5794,-13,-62,-19
32767,21822,5688,-89,-22,-18
32767,21462,5744,-78,19,-10
32767,21252,6564,-16,0,-9
32767,21448,6698,21,-43,-4
32767,21816,6476,6,-100,-3
32767,21780,5998,-36,-114,-3
32767,21574,5492,-41,-80,-9
32767,21908,6552,-32,-7,-12
32767,21714,6580,-99,-58,-7
32767,21492,6184,-93,-93,-20
32767,21532,5648,-38,-77,-7
32767,21512,5584,13,-31,5
32767,21648,5986,19,3,-10
32767,21738,6564,-11,-12,-18
32767,21898,6422,-79,-63,0
32767,21444,6124,-109,-93,-12
32767,21232,5712,-38,-79,-11
32767,21280,5662,62,-40,6
32767,21962,5976,95,-4,-3
32767,22502,6252,-40,-7,-19
32767,21768,6432,-179,-34,-14
32767,20982,6368,-141,-75,5
32767,20962,5958,74,-89,18
32767,21844,5734,126,-64,2
32767,22082,5762,22,-24,-19
32767,21750,6084,-78,-9,-29
32767,21430,6472,-88,-37,-24
32767,21424,6360,-23,-66,-11
32767,21768,6070,14,-90,5
32767,21860,5858,-10,-73,13
32767,21956,5702,-64,-29,-8
32767,21786,5884,-88,12,-10
32767,21612,6338,-108,12,-9
32767,21220,6626,-108,-19,-10
32767,21026,6576,-56,-73,-5
32767,21300,6178,20,-102,-10
32767,21758,5730,30,-80,-16
32767,21866,5630,-16,-27,-22
32767,21522,6142,-50,14,-14
32767,21296,6578,-24,-13,-10
32767,21636,6558,2,-65,-9
32767,21764,6232,-12,-103,4
32767,21644,5692,-49,-95,-5
32767,21350,5562,-36,-56,-15
32767,21416,5752,36,-10,-8
32767,22074,6240,23,8,-8
32767,21938,6380,-83,-19,-6
32767,21464,6348,-121,-50,-11
32767,21234,6066,-54,-53,-5
32767,21526,5854,18,-40,-2
32767,21950,5912,11,-17,-6
32767,21924,6254,-77,-22,-12
32767,21406,6406,-111,-44,-4
32767,21090,6144,-25,-70,4
32767,21466,5920,48,-62,-4
32767,21974,5808,24,-38,-13
32767,22030,5902,-63,-9,-14
32767,21388,6370,-120,-22,-11
32767,21066,6494,-50,-43,-9
32767,21270,6398,36,-81,-8
32767,21752,5972,84,-86,1
32767,22182,5810,-24,-60,-12
32767,21762,5902,-117,-34,-17
32767,21194,6196,-93,-20,-11
32767,21072,6210,13,-24,-2
32767,21320,6160,101,-29,-2
32767,21714,6204,109,-35,-7
32767,21946,6394,54,-65,-10
32767,21858,6272,15,-92,-6
32767,21968,5998,-6,-103,-13
32767,21862,5800,-9,-76,5
32767,21556,5908,-18,-15,-10
32767,21698,6168,-24,-14,-22
32767,21818,6418,-55,-38,-9
32767,21676,6206,-68,-82,-4
32767,21536,5856,-20,-76,-2
32767,21684,5586,38,-41,-3
32767,22038,5820,32,-4,-13
32767,22188,6160,-54,10,-28
32767,21856,6442,-121,-17,-15
32767,21266,6538,-80,-61,17
32767,21278,6288,33,-94,24
32767,21798,5812,65,-89,-6
32767,22032,5628,6,-49,-21
32767,21874,5844,-48,-11,-22
32767,21622,6170,-51,-9,-20
32767,21638,6386,-11,-36,2
32767,21768,6420,10,-75,19
32767,21932,5984,-26,-81,2
32767,21732,5596,-91,-51,-11
32767,21330,5788,-74,-16,-13
32767,21282,6224,13,-9,-18
32767,21866,6366,73,-28,-10
32767,22430,6410,11,-59,-6
32767,22262,6120,-108,-78,-4
32767,21686,5768,-152,-64,-5
32767,21190,5718,-88,-31,-5
32767,21308,6136,63,-3,7
32767,21876,6340,65,-15,-3
32767,22144,6452,-21,-50,-12
32767,21958,6250,-108,-84,-8
32767,21322,5986,-110,-85,-12
32767,21242,5640,-6,-55,-16
32767,21712,5820,90,-10,-11
32767,22256,6150,58,10,-20
32767,22016,6626,-67,-31,-6
32767,21768,6436,-104,-79,-2
32767,21550,6054,-79,-104,-8
32767,21790,5616,-25,-81,-1
32767,21894,5538,-21,-38,5
32767,21640,5894,-27,4,-4
32767,21518,6316,-28,5,-9
32767,21444,6562,-13,-32,1
32767,21858,6324,-34,-87,-17
32767,21778,5942,-57,-96,-17
32767,21624,5678,-23,-67,-16
32767,21612,5718,26,-29,-16
32767,21942,6050,58,4,-14
32767,22320,6184,-4,-8,0
32767,22056,6266,-106,-43,1
32767,21534,6238,-136,-71,-2
32767,21340,5934,-39,-68,-2
32767,21746,5790,23,-42,-9
32767,22128,5848,8,-9,-17
32767,21980,6262,-60,-4,-2
32767,21396,6362,-78,-26,12
32767,21288,6416,-40,-66,-5
32767,21634,6116,14,-90,-14
32767,22110,5668,-17,-58,-15
32767,21964,5610,-55,-9,-12
32767,21628,5960,-57,23,-9
32767,21692,6548,-26,0,6
32767,21658,6672,-25,-50,9
32767,21660,6338,-35,-91,-11
32767,21464,5810,-36,-88,-24
32767,21930,5750,58,-11,-13
32767,22294,6214,1,-10,-3
32767,22024,6378,-84,-36,-2
32767,21564,6384,-97,-70,1
32767,21306,6008,-33,-77,11
32767,21532,5648,35,-48,2
32767,21994,5850,17,7,-26
32767,22064,6302,-74,2,-13
32767,21592,6480,-106,-26,0
32767,21430,6308,-52,-71,-5
32767,21662,5990,20,-76,2
32767,22094,5636,24,-46,1
32767,22252,5770,-49,-2,-12
32767,21768,6164,-105,10,0
32767,21080,6540,-36,-32,22
32767,21552,6396,35,-69,3
32767,22030,5854,-1,-72,-11
32767,21920,5654,-79,-37,-16
32767,21548,5714,-105,2,-26
32767,21234,6240,-36,17,-19
32767,21808,6622,46,-25,7
32767,22136,6536,-32,-85,12
32767,21798,6002,-88,-106,-4
32767,21430,5610,-52,-72,3
32767,21432,5716,33,-16,5
32767,21976,5986,37,14,-11
32767,22042,6392,-47,4,-14
32767,21478,6564,-110,-47,-8
32767,21210,6326,-44,-97,-8
32767,21882,5778,55,-93,-8
32767,22510,5538,20,-45,-1
32767,22298,5704,-104,2,5
32767,21488,6188,-144,23,7
32767,21070,6688,-63,-17,14
32767,21242,6594,33,-68,16
32767,21784,6108,42,-99,-5
32767,21944,5730,-25,-94,-14
32767,21406,5720,-57,-43,-13
32767,21352,5840,17,-7,-14
32767,21932,6206,49,-11,-18
32767,22180,6454,-8,-32,-11
32767,21960,6344,-63,-61,-1
32767,21788,6126,-54,-78,-1
32767,21660,5822,-19,-65,3
32767,21764,5786,12,-33,6
32767,21798,6202,-36,-21,-2
32767,21512,6394,-54,-38,-1
32767,21474,6310,-27,-72,0
32767,21638,5944,-9,-77,-11
32767,21756,5700,-18,-54,-15
32767,21766,5678,-33,-12,-28
32767,21728,6206,-30,-8,-22
32767,21892,6490,-17,-26,-7
32767,21972,6284,-41,-84,-1
32767,21726,5896,-34,-89,8
32767,21622,5568,-6,-57,1
32767,21656,5652,11,-6,-11
32767,21856,6134,-4,8,-15
32767,21930,6628,-44,-26,-1
32767,21662,6520,-75,-72,2
32767,21516,5856,-46,-91,-8
32767,21546,5574,7,-55,-19
32767,22076,5714,23,-9,-28
32767,22200,6090,-21,8,-21
32767,22022,6420,-66,-17,-3
32767,21460,6436,-66,-72,11
32767,21436,6112,-10,-94,3
32767,21900,5654,8,-69,-14
32767,22010,5636,-40,-24,-27
32767,21688,6278,-67,8,-12
32767,21664,6566,-44,-28,-4
32767,21924,6644,-35,-83,-2
32767,21782,6234,-55,-116,20
32767,21684,5584,-47,-99,12
32767,21514,5344,-16,-47,10
32767,21672,5708,-3,-9,2
32767,21878,6196,-50,6,-14
32767,21616,6222,-69,-6,-10
32767,21544,6030,-27,-9,1
32767,21694,6148,4,-11,-4
32767,22038,6154,-22,-22,-8
32767,21848,6250,-92,-34,-3
32767,21456,6166,-71,-54,-6
32767,21568,5966,10,-48,-1
32767,21964,5868,32,-19,-3
32767,21950,5992,-40,-4,-15
32767,21564,6326,-102,-32,-16
32767,21238,6422,-73,-69,-7
32767,21262,6176,16,-94,-6
32767,21794,5726,75,-77,-14
32767,22232,5644,37,-31,-22
32767,22090,5964,-58,-4,-22
32767,21470,6514,-86,-31,-15
32767,21382,6456,-16,-80,-12
32767,21636,6018,41,-101,-9
32767,21930,5702,43,-87,-10
32767,21868,5628,8,-45,-18
32767,21984,6062,-34,-15,-18
32767,21832,6260,-74,-25,-11
32767,21614,6264,-64,-49,-3
32767,21626,6072,-20,-60,5
32767,21700,5874,19,-50,0
32767,22020,5920,-13,-26,-19
32767,22056,6178,-66,-26,-18
32767,21670,6354,-87,-39,-6
32767,21390,6182,-26,-57,7
32767,21586,6016,35,-67,6
32767,21966,5858,35,-49,-1
32767,22158,6060,-51,-41,-19
32767,21692,6186,-110,-34,-12
32767,21406,6184,-57,-45,-4
32767,21436,6096,24,-42,6
32767,21928,5990,46,-37,-1
32767,22172,6078,-33,-34,-20
32767,21826,6304,-88,-48,-14
32767,21410,6336,-59,-69,-7
32767,21394,6120,23,-87,-5
32767,22074,5622,47,-58,-7
32767,22116,5590,-28,-15,-12
32767,21770,5954,-92,18,-17
32767,21434,6364,-93,14,-24
32767,21370,6544,8,-25,-3
32767,21914,6182,91,-54,0
32767,22302,5876,65,-38,-6
32767,22286,5758,-16,-28,-7
32767,21728,6142,-67,-21,-5
32767,21458,6316,-16,-35,10
32767,21646,6180,48,-61,18
32767,22008,6048,36,-71,4
32767,22066,5806,-54,-33,-3
32767,21778,5908,-80,-6,-11
32767,21618,6296,-50,-14,-1
32767,21596,6392,-3,-35,2
32767,21840,6280,17,-66,-8
32767,22030,5998,2,-80,-12
32767,22084,5836,-48,-67,-12
32767,21744,5810,-68,-44,-20
32767,21720,5960,-2,-15,-7
32767,21950,6320,4,-26,2
32767,21978,6376,-24,-45,-6
32767,21882,6058,-50,-59,-7
32767,21850,5916,-60,-61,-8
32767,21784,6004,-59,-46,-12
32767,21700,6182,-35,-45,-4
32767,21852,6100,-9,-49,6
32767,21962,5950,-23,-50,-3
32767,21934,5866,-40,-38,-11
32767,21816,5978,-48,-23,-10
32767,21922,6188,-47,-31,-5
32767,21852,6130,-27,-38,11
32767,21882,6092,-9,-58,14
32767,21844,5926,-21,-51,6
32767,21832,5792,-31,-32,-7
32767,21892,5926,-83,-10,-17
32767,21596,6174,-89,-16,-19
32767,21462,6318,-26,-38,-1
32767,21690,6120,53,-53,11
32767,22064,6006,41,-58,-3
32767,22304,6034,-31,-56,-17
32767,22116,6040,-104,-61,-6
32767,21664,6104,-116,-62,-1
32767,21318,5864,2,-53,6
32767,21790,5918,62,-32,16
32767,22166,6140,18,-28,6
32767,22126,6230,-78,-46,-9
32767,21776,6136,-108,-65,-4
32767,21560,6044,-54,-74,2
32767,21792,5738,16,-46,3
32767,22098,5746,9,-12,-1
32767,21868,6202,-89,-3,1
32767,21508,6570,-100,-33,-8
32767,21216,6324,-26,-67,-7
32767,21698,5896,60,-67,-7
32767,22380,5630,39,-37,-12
32767,22476,5630,-42,9,-8
32767,22034,6036,-98,29,5
32767,21460,6580,-83,-5,7
32767,21292,6508,-34,-47,7
32767,21674,6042,3,-66,-9
32767,21884,5726,2,-55,-16
32767,21854,5896,-24,-37,-8
32767,21724,6246,-34,-28,-9
32767,21590,6286,-12,-47,-17
32767,21892,6108,22,-57,-16
32767,22210,5744,-16,-48,-15
32767,22040,6090,-56,-43,-6
32767,21882,6364,-53,-57,11
32767,21880,6198,-49,-77,7
32767,21792,5816,-47,-73,4
32767,21646,5596,-33,-35,9
32767,21532,5772,-6,11,4
32767,21572,6248,16,29,2
32767,21792,6650,0,-29,6
32767,21856,6148,-40,-105,-16
32767,21896,5740,-4,-89,-13
32767,22090,5640,21,-48,-4
32767,22146,5740,8,-5,-2
32767,21978,6402,-52,-15,3
32767,21544,6526,-70,-50,13
32767,21686,6326,-52,-96,-3
32767,21800,5908,-49,-106,-15
32767,21808,5632,-31,-71,-7
32767,21794,5636,-5,-21,-6
32767,21804,5926,14,8,-12
32767,22014,6430,-20,-19,-8
32767,21890,6578,-99,-91,-4
32767,21678,6022,-89,-118,-8
32767,21680,5462,-13,-88,6
32767,21838,5446,48,-15,4
32767,22228,5548,27,50,-13
32767,22240,6534,-73,40,-18
32767,21670,7002,-129,-16,-1
32767,21354,6568,-71,-92,8
32767,21652,5590,57,-108,9
32767,22154,5344,63,-48,7
32767,22218,5388,-8,31,-3
32767,22046,6010,-101,55,-10
32767,21460,6734,-152,15,-14
32767,21158,6680,-76,-51,-3
32767,21476,6190,13,-90,-5
32767,22010,5706,54,-65,-20
32767,22210,5754,6,-25,-27
32767,22092,6252,-56,-23,-25
32767,21952,6482,-68,-47,-17
32767,21870,6340,-65,-87,1
32767,21726,5918,-33,-98,13
32767,21690,5518,-7,-60,4
32767,21794,5574,-16,-20,-6
32767,22056,6024,-91,24,-37
32767,22100,6484,-160,5,-38
32767,21784,6460,-193,-39,-5
32767,21172,6212,-108,-71,25
32767,21130,5968,28,-75,15
32767,21398,5792,109,-52,0
32767,22080,5914,75,-29,-29
32767,22216,6034,-50,-16,-55
32767,21652,6130,-73,-23,-23
32767,21602,6118,6,-47,6
32767,21908,6138,50,-49,2
32767,22180,5964,5,-44,-15
32767,22094,5998,-82,-32,-23
32767,21640,6062,-105,-27,-13
32767,21298,6166,-32,-29,-3
32767,21642,6290,47,-54,2
32767,21950,6208,7,-68,-5
32767,21766,5906,-40,-63,-17
32767,21490,5838,-22,-39,-18
32767,21536,5916,47,-24,-9
32767,21904,6266,82,-28,5
32767,22108,6398,52,-63,3
32767,22196,6052,9,-80,0
32767,22120,5678,-27,-69,1
32767,21916,5762,-21,-28,4
32767,21944,6170,-17,-20,2
32767,22034,6428,-52,-45,-5
32767,21778,6324,-76,-82,-2
32767,21566,5854,-43,-90,2
32767,21726,5538,-1,-66,3
32767,21904,6170,-58,-56,-2
32767,21746,6136,-67,-60,-6
32767,21724,5848,-16,-48,-13
32767,22008,5758,-6,-24,-9
32767,22038,5980,-53,-6,-3
32767,21740,6252,-80,-26,-3
32767,21418,6436,-52,-61,0
32767,21628,6184,14,-83,1
32767,22110,5784,16,-81,-15
32767,22168,5622,-41,-44,-15
32767,21746,5956,-54,-2,-7
32767,21730,6372,-22,-5,-2
32767,21858,6584,-30,-45,-2
32767,21754,6276,-63,-79,-9
32767,21520,5860,-43,-83,-15
32767,21548,5628,19,-45,-15
32767,21950,5970,52,-17,-18
32767,22274,6420,-12,-36,-13
32767,22068,6220,-68,-68,1
32767,21676,5958,-76,-72,1
32767,21660,5772,-33,-48,-1
32767,21822,5760,-38,-19,-5
32767,21720,6054,-49,-1,-14
32767,21708,6352,-33,-28,-14
32767,21744,6410,3,-59,1
32767,22094,6116,-2,-94,-1
32767,22174,5734,-61,-81,-9
32767,21656,5682,-95,-39,-13
32767,21366,5712,-34,-2,-10
32767,21600,6288,45,-3,-2
32767,22302,6490,48,-40,0
32767,22408,6266,-75,-84,-2
32767,21818,5782,-142,-85,-6
32767,21324,5572,-43,-29,-7
32767,21464,5938,54,9,-9
32767,21894,6478,72,-8,-8
32767,22068,6574,2,-60,-6
32767,21800,6276,-74,-101,-12
32767,21426,5676,-51,-96,-18
32767,21648,5396,36,-46,-11
32767,21996,5756,65,1,-9
32767,22268,6558,5,-17,-22
32767,22272,6498,-56,-66,-11
32767,21932,6064,-79,-89,3
32767,21686,5728,-52,-72,-1
32767,21736,5748,-8,-27,-8
32767,21994,6002,5,-4,-7
32767,22018,6234,-25,-9,0
32767,21946,6294,-60,-39,-4
32767,21576,6024,-69,-64,-1
32767,21552,5898,-21,-63,-10
32767,21652,5910,31,-42,-17
32767,22076,5868,60,-22,-4
32767,22406,5952,3,-12,-9
32767,22216,6196,-90,-25,-21
32767,21822,6330,-103,-46,-10
32767,21690,6054,-27,-73,12
32767,21924,5964,4,-76,11
32767,21886,5832,-10,-62,5
32767,21658,5818,-31,-38,-8
32767,21594,5874,-3,-13,-12
32767,21938,6328,2,-21,-20
32767,22084,6462,-49,-56,-15
32767,21698,6252,-75,-98,-6
32767,21910,5472,88,-58,-3
32767,22516,5644,68,-1,-4
32767,22760,6094,-74,18,-14
32767,21966,6442,-179,-8,-4
32767,21300,6622,-120,-73,14
32767,21600,6158,54,-114,30
32767,22232,5582,55,-91,11
32767,22298,5380,-48,-24,-8
32767,21716,5720,-109,28,-19
32767,21376,6284,-74,33,-23
32767,21512,6646,-21,-12,-19
32767,21762,6572,12,-64,-16
32767,21998,6030,33,-89,-4
32767,22212,5658,21,-60,-7
32767,22242,5784,17,-25,1
32767,22160,6090,-4,-14,14
32767,22162,6268,-46,-30,9
32767,21900,6274,-87,-60,1
32767,21584,6068,-74,-74,4
32767,21626,5780,-7,-57,8
32767,22050,5794,12,-14,-6
32767,22170,6082,-40,-1,-18
32767,21962,6424,-87,-18,-12
32767,21650,6358,-62,-55,1
32767,21814,6156,0,-85,10
32767,22008,5746,23,-75,12
32767,22140,5750,-2,-41,5
32767,22116,5762,-47,-10,-11
32767,21966,6188,-69,-12,-12
32767,22000,6298,-63,-29,6
32767,21776,6156,-62,-53,15
32767,21464,6016,-25,-54,4
32767,21678,5884,22,-41,-4
32767,22034,5974,12,-27,-17
32767,22208,6090,-57,-28,-26
32767,21918,6184,-93,-44,-17
32767,21618,6180,-27,-62,9
32767,21750,5984,42,-61,13
32767,22156,5884,41,-45,8
