ax,ay,az,gx,gy,gz,ax,ay,az,gx,gy,gz
32767,20402,6092,-70,-67,-4,24024,5170,5260,-50,43,25
32767,20308,5748,-31,-62,12,23916,5020,5210,-43,32,27
32767,20394,5678,-28,-20,11,23980,5282,5168,-22,15,4
32767,20710,6084,-135,27,-37,24266,5490,5126,-29,17,-1
32767,19914,6352,-153,36,-50,24304,5436,5220,-39,36,8
32767,19946,6386,-33,9,-6,24152,5220,5166,-55,52,12
32767,20098,6514,66,-23,29,23930,4996,5150,-43,47,16
32767,20712,6320,57,-40,9,23864,5084,5226,-12,36,6
32767,20638,6250,-52,-70,-12,23996,5304,5330,-9,13,0
32767,20328,6196,-76,-75,-35,24086,5442,5132,-25,14,9
32767,20326,5996,-21,-71,-5,24140,5152,5274,-25,12,16
32767,20596,5904,5,-45,13,24102,5280,5216,-30,26,11
32767,20488,6076,-43,-21,16,24044,5334,5290,-29,15,18
32767,20088,6480,-102,-32,-13,24034,5268,5274,-37,19,7
32767,19826,6528,-83,-66,-39,24194,5214,5080,-35,11,-3
32767,20012,6200,0,-93,-17,24246,5148,5244,-34,24,-6
32767,20468,5816,57,-76,8,23950,5026,5204,-31,33,29
32767,20724,5810,46,-37,13,23814,5126,5256,-17,20,17
32767,20506,6282,-45,-13,6,23904,5348,5206,-11,5,4
32767,20222,6510,-70,-35,-18,24182,5332,5152,-8,-2,2
32767,20188,6492,-49,-80,-22,24320,5310,5222,-16,7,-4
32767,20338,6126,14,-101,-2,24244,5304,5234,-30,18,13
32767,20728,5754,32,-78,13,24014,5230,5326,-30,23,19
32767,20684,5696,-18,-34,34,23932,5332,5230,-33,14,8
32767,20162,5976,-83,-3,29,24058,5324,5216,-37,4,5
32767,19694,6250,-98,8,-24,24326,5174,5150,-29,19,9
32767,19902,6370,-25,-1,-37,24348,5238,5286,-29,41,3
32767,20344,6204,26,-7,-21,24242,5134,5202,-48,56,17
32767,20766,6300,41,-12,-14,23986,4864,5120,-35,57,23
32767,20780,6272,14,-24,1,23840,5030,5164,-8,49,10
32767,20692,6530,-21,-47,11,23830,5378,5252,7,29,4
32767,20466,6388,-55,-77,6,23888,5518,5340,-5,16,0
32767,20156,6188,-62,-86,0,24050,5354,5276,-29,6,8
32767,20118,5886,-26,-75,-2,24222,5216,5224,-35,11,4
32767,20464,5854,2,-32,-6,24286,5164,5138,-31,9,11
32767,20554,6130,-30,-15,-7,24116,5238,5204,-27,13,1
32767,20298,6700,-57,-42,-17,24170,5328,5172,-26,14,3
32767,20242,6758,-41,-91,-26,24218,5238,5224,-26,18,6
32767,20282,6292,-7,-130,-9,24078,5254,5272,-31,21,10
32767,20534,5764,30,-118,14,23968,5246,5244,-41,15,8
32767,20572,5436,17,-63,22,23974,5110,5204,-35,0,6
32767,20136,5994,-37,2,8,24092,5312,5120,-21,-4,-1
32767,20092,6392,-54,12,-39,24246,5332,5084,-21,2,2
32767,20230,6512,-53,-13,-48,24418,5228,5246,-20,22,-2
32767,20440,6380,-11,-43,-31,24292,5094,5254,-33,38,12
32767,20674,5980,20,-54,-9,24000,4986,5228,-19,40,26
32767,20802,5786,18,-26,14,23894,5278,5246,-9,29,16
32767,20810,5990,-39,4,8,24054,5454,5222,-6,11,11
32767,20522,6242,-87,14,-5,24216,5530,5198,-21,14,6
32767,20040,6524,-89,-26,3,24160,5240,5256,-37,23,13
32767,20052,6406,-33,-59,6,24212,5180,5222,-36,26,14
32767,20270,6092,1,-75,8,24164,5246,5240,-35,21,8
32767,20306,5978,4,-66,6,24186,5190,5148,-37,23,14
32767,20338,6096,-26,-44,-12,24052,5164,5284,-30,22,11
32767,20340,6228,-49,-37,-30,24174,5142,5150,-19,15,2
32767,20414,6344,-40,-51,-20,24192,5242,5198,-21,22,2
32767,20406,6134,-6,-67,1,24028,5226,5194,-24,25,13
32767,20542,6014,-6,-72,16,24004,5180,5250,-18,14,9
32767,20302,6008,-48,-53,-6,24156,5356,5150,-20,10,9
32767,20116,6032,-50,-33,-23,24222,5432,5280,-20,14,13
32767,20146,6158,-16,-21,-24,24224,5274,5218,-27,23,17
32767,20488,6534,12,-47,-16,24132,5154,5174,-28,26,10
32767,20690,6410,15,-78,-6,24008,5174,5116,-16,21,6
32767,20576,6016,-18,-95,9,24014,5356,5388,-15,15,6
32767,20382,5684,-36,-69,10,24058,5404,5262,-29,10,11
32767,20280,6288,-78,-7,-15,24268,5268,5204,-36,8,5
32767,20192,6484,-57,-22,-18,24210,5264,5178,-40,18,5
32767,20170,6360,-11,-56,-3,24250,5054,5200,-32,26,10
32767,20458,6036,24,-66,1,24090,5094,5248,-25,31,6
32767,20518,6000,-6,-60,-4,23970,5228,5182,-18,26,15
32767,20460,6120,-31,-52,-11,24098,5396,5200,-30,15,11
32767,20354,6250,-58,-53,-19,24138,5274,5142,-24,6,6
32767,20256,6230,-42,-59,-21,24230,5194,5256,-23,8,1
32767,20412,5972,0,-54,3,24264,5274,5188,-24,24,8
32767,20486,5624,12,-23,22,24142,5242,5250,-34,32,11
32767,20604,5722,-30,32,5,24162,5180,5278,-27,33,15
32767,20464,6258,-110,53,-27,24200,5286,5208,-24,32,11
32767,19994,6650,-90,20,-28,24170,5256,5158,-26,31,7
32767,20242,6634,-8,-45,8,24146,5198,5178,-22,34,4
32767,20544,6442,22,-92,8,24030,5208,5274,-31,35,2
32767,20648,6112,-22,-109,-1,23964,5162,5158,-27,34,18
32767,20318,5704,-66,-94,1,24074,5348,5302,-27,24,9
32767,19898,5928,-50,-60,-8,24048,5320,5232,-51,17,6
32767,20010,5980,-6,-31,-18,24170,5074,5190,-41,13,4
32767,20332,6110,10,-19,-18,24162,5148,5166,-28,18,-8
32767,20690,6194,1,-14,-12,24230,5168,5230,-22,22,-2
32767,20690,6286,-30,-17,-4,24182,5124,5122,-30,27,7
32767,20584,6624,-43,-49,-8,24134,5078,5234,-17,28,16
32767,20442,6396,-28,-83,-7,24138,5378,5174,-11,29,19
32767,20408,6094,-14,-101,6,24178,5500,5238,-12,21,14
32767,20438,5798,-20,-82,9,24126,5502,5346,-32,16,2
32767,20254,5652,-51,-35,2,24082,5284,5270,-41,9,5
32767,19994,5988,-58,5,-2,24092,5156,5206,-50,9,0
32767,19892,6618,0,-6,-11,24148,5142,5158,-48,11,5
32767,20486,6738,34,-46,-21,24150,4994,5168,-38,18,7
32767,20844,6474,-6,-94,-15,24212,5018,5100,-13,22,11
32767,20686,6064,-40,-110,-2,24220,5132,5258,3,22,10
32767,20284,5774,-16,-87,26,24166,5314,5240,-13,27,20
32767,20232,5800,32,-48,29,23988,5276,5202,-32,16,24
32767,20502,6006,21,-11,3,24104,5306,5226,-22,6,12
32767,20538,6482,-67,-15,-28,24316,5408,5144,-14,9,5
32767,20382,6528,-72,-45,-26,24332,5344,5176,-20,21,6
32767,20424,6174,-19,-65,2,24192,5232,5206,-25,28,12
32767,20446,5910,21,-60,34,24092,5138,5166,-26,30,16
32767,20316,5876,14,-36,24,24048,5248,5272,-29,23,19
32767,20288,6550,-57,-36,-38,24048,5256,5138,-24,17,20
32767,20304,6386,-49,-67,-35,24206,5310,5142,-9,10,9
32767,20434,6022,-7,-76,-10,24344,5364,5234,-12,17,9
32767,20510,5760,18,-45,6,24298,5274,5332,-34,24,5
32767,20552,5896,12,-14,20,24108,5130,5162,-46,26,18
32767,20448,6338,3,-11,27,24048,5140,5258,-36,13,14
32767,20374,6488,-32,-44,8,24078,5258,5198,-22,4,9
32767,20292,6466,-31,-79,-16,24190,5232,5120,-11,-5,13
32767,20306,6258,13,-96,-9,24372,5272,5342,-16,9,6
32767,20638,5810,45,-71,3,24394,5388,5246,-26,27,19
32767,20832,5586,29,-26,9,24034,5246,5306,-37,35,18
32767,20612,5994,-46,19,10,23958,5212,5232,-29,22,12
32767,20170,6584,-87,8,-19,24060,5236,5100,-23,7,4
32767,20128,6646,-23,-48,-19,24174,5170,5136,-13,3,7
32767,20514,6348,54,-87,5,24394,5290,5278,-6,14,8
32767,20886,5860,69,-94,23,24318,5340,5246,-19,26,11
32767,20910,5656,10,-61,22,24056,5246,5258,-29,25,21
32767,20564,6010,-69,-29,12,24046,5244,5246,-30,13,14
32767,20328,6288,-115,-29,-26,24172,5326,5198,-27,0,3
32767,20196,6282,-113,-52,-33,24302,5228,5162,-29,4,2
32767,20170,6094,-17,-76,-5,24512,5292,5254,-24,22,5
32767,20398,6098,34,-81,0,24350,5216,5222,-43,37,10
32767,20756,5982,27,-70,-13,23986,5014,5242,-34,40,31
32767,20816,5864,-28,-40,-17,24032,5160,5168,-15,29,23
32767,20424,6010,-83,7,-16,24198,5428,5180,-10,24,8
32767,20292,6394,-62,-11,-10,24268,5480,5282,-21,28,15
32767,20172,6306,-29,-35,4,24068,5228,5154,-35,30,5
32767,20230,6030,3,-46,0,24080,5164,5206,-30,26,1
32767,20388,5810,27,-23,-15,24138,5134,5256,-24,18,3
32767,20708,6098,21,-10,-18,24214,5244,5252,-26,21,6
32767,20824,6390,-34,0,-23,24200,5176,5228,-29,26,16
32767,20654,6512,-85,-33,-26,24208,5264,5206,-21,27,9
32767,20402,6414,-72,-65,-13,24216,5350,5182,-24,30,7
32767,20260,6070,-6,-97,13,24148,5284,5348,-30,28,3
32767,20364,5856,26,-79,4,24120,5136,5198,-29,24,-2
32767,20602,5788,6,-37,-6,24096,5276,5244,-25,19,-3
32767,20656,5954,-42,3,-14,24148,5260,5212,-29,17,10
32767,20670,6364,-81,-3,-23,24328,5304,5332,-25,16,2
32767,20476,6588,-75,-36,-14,24312,5308,5102,-25,26,5
32767,20234,6524,-34,-88,5,24188,5184,5190,-28,26,8
32767,20204,6218,15,-116,8,24070,5234,5220,-23,24,6
32767,20778,5698,-3,-88,-10,24220,5284,5198,-21,20,5
32767,20664,5660,-54,-30,-11,24236,5298,5236,-29,25,18
32767,20380,6074,-78,-2,-10,24206,5212,5250,-28,21,12
32767,20108,6472,-55,-5,-13,24182,5378,5186,-33,19,-1
32767,20324,6460,-27,-42,-12,24092,5258,5124,-44,13,9
32767,20480,6152,-10,-54,-8,24130,5116,5100,-36,18,4
32767,20656,5984,-1,-46,-8,24318,5186,5260,-18,21,2
32767,20784,6482,-34,-63,-17,24384,5262,5300,-26,32,6
32767,20848,6514,-69,-98,-10,24248,5188,5284,-28,37,22
32767,20704,6102,-96,-118,15,23970,5162,5198,-23,32,20
32767,20556,5668,-102,-96,29,24044,5466,5142,-3,13,1
32767,20138,5396,-98,-29,44,24138,5460,5312,-16,9,0
32767,19658,6146,-88,12,23,24212,5264,5300,-37,8,14
32767,19630,6558,-20,13,-16,24228,5240,5254,-43,3,11
32767,19838,6662,41,-31,-17,24242,5270,5198,-45,3,10
32767,20740,6280,70,-77,-20,24266,5222,5064,-36,11,15
32767,20936,5956,28,-83,-19,24268,5218,5230,-23,20,9
32767,20764,5982,-19,-78,-8,24132,5290,5228,-37,27,18
32767,20504,6076,-35,-61,-7,24180,5052,5298,-30,5,16
32767,20402,5972,-48,-50,-16,24342,5314,5176,-18,4,7
32767,20304,5884,-20,-26,2,24280,5376,5242,-22,9,11
32767,20220,5976,4,-10,20,24226,5256,5214,-14,16,16
32767,20222,6354,10,-15,11,24208,5350,5202,-24,13,1
32767,20656,6464,-25,-53,-38,24180,5246,5274,-31,12,11
32767,20650,6344,-58,-73,-38,24148,5074,5100,-32,15,7
32767,20608,6014,-17,-72,-13,24352,5018,5116,-12,16,9
32767,20708,5798,36,-50,21,24586,5310,5314,2,43,22
32767,20704,6062,24,-29,33,24364,5514,5312,-18,51,42
32767,20638,6272,-41,-34,1,23996,5380,5294,-30,44,37
32767,20272,6256,-93,-47,-19,23878,5376,5166,-25,20,12
32767,19970,6008,-47,-46,-3,24144,5396,5124,-20,-1,1
32767,20318,5884,41,-25,7,24410,5380,5198,-16,8,3
32767,20700,6168,8,-13,-1,24220,5348,5184,-34,22,12
32767,20784,6414,-73,-27,-19,24066,5178,5260,-48,27,20
32767,20240,6478,-109,-51,-26,24060,5080,5158,-35,18,3
32767,20090,6206,-31,-72,-19,24230,5154,5156,-20,15,-4
32767,20394,6018,59,-70,3,24188,5248,5260,-15,24,6
32767,20888,5924,57,-45,2,24278,5258,5230,-19,27,10
32767,20760,6042,-44,-3,-10,24258,5388,5280,-15,30,3
32767,20538,6354,-71,-4,-13,24156,5378,5280,-25,26,0
32767,20362,6426,-50,-36,-11,24110,5296,5190,-23,17,-5
32767,20446,6532,-37,-68,-15,24196,5296,5152,-15,9,-7
32767,20382,6332,-20,-95,-12,24420,5420,5228,-14,15,7
32767,20472,5918,0,-96,2,24432,5380,5256,-22,20,9
32767,20498,5644,3,-63,13,24372,5380,5334,-36,24,-1
32767,20446,5694,-32,-11,-2,24278,5268,5258,-41,30,4
32767,20416,6316,-81,16,-36,24056,5084,5180,-42,27,9
32767,20302,6696,-67,-16,-38,24078,5182,5228,-32,18,9
32767,20780,6310,40,-86,-4,24250,5248,5162,-27,14,3
32767,21052,5982,38,-88,17,24460,5252,5160,-25,24,7
32767,20942,5936,-51,-79,12,24304,5180,5162,-22,42,15
32767,20078,6024,-129,-42,-13,24140,5284,5318,-17,41,19
32767,19898,5996,-70,-22,-22,24072,5412,5298,-17,27,10
32767,20222,5956,20,2,-3,24122,5486,5262,-22,11,3
32767,20640,6194,45,8,17,24312,5404,5160,-25,7,2
32767,20874,6642,-24,-25,-13,24436,5302,5268,-40,18,-6
32767,20528,6706,-89,-79,-30,24374,5120,5172,-44,31,11
32767,20216,6226,-63,-124,-18,24160,5016,5202,-38,37,17
32767,20454,5666,9,-112,-11,24092,5154,5146,-17,30,19
32767,20726,5408,35,-21,19,24328,5340,5260,-5,19,5
32767,20664,6176,-33,20,16,24362,5450,5338,-21,29,9
32767,20282,6528,-107,17,-11,24282,5332,5306,-27,32,18
32767,19764,6738,-122,-36,-21,24094,5378,5182,-36,29,10
32767,19644,6390,-29,-80,-31,24082,5306,5226,-35,24,10
32767,20188,5942,73,-88,-17,24172,5216,5114,-38,21,2
32767,20684,5654,78,-62,0,24310,5112,5326,-31,22,-3
32767,20946,5866,-26,-20,-34,24280,5014,5146,-37,29,6
32767,20544,6084,-76,1,-33,24008,5140,5238,-32,29,8
32767,20506,6230,-27,2,-18,23932,5130,5216,-39,19,9
32767,20906,6382,15,-16,2,24164,4998,5078,-25,5,1
32767,21074,6572,-16,-57,5,24458,5136,5168,-4,12,-4
32767,20752,6458,-73,-93,1,24410,5396,5254,0,31,16
32767,20190,5968,-74,-109,0,24282,5390,5326,-8,40,24
32767,19938,5586,-25,-78,8,24224,5456,5304,-12,38,23
32767,20230,5712,-3,-1,-7,24302,5564,5180,-15,33,16
32767,20556,6262,-61,21,-34,24142,5534,5400,-33,24,9
32767,20240,6574,-106,4,-42,24152,5354,5216,-48,17,0
32767,20016,6642,-59,-43,-25,24274,5164,5208,-56,16,-4
32767,20296,6280,36,-77,-20,24216,5048,5154,-56,29,5
32767,20844,5924,88,-75,-16,24088,4982,5162,-55,29,6
32767,21144,5892,61,-51,-8,24144,4904,5196,-41,25,-3
32767,21064,6056,-13,-34,-13,24238,4976,5182,-33,32,10
32767,20422,6190,-103,-43,-38,24186,5106,5212,-6,30,26
32767,20112,6184,-57,-57,-24,24136,5526,5212,20,24,14
32767,20348,6026,24,-57,6,24062,5776,5260,16,16,10
32767,20640,5882,24,-40,14,24266,5786,5318,-10,6,-3
32767,20580,6186,-62,-22,-7,24576,5586,5266,-48,15,-19
32767,20162,6280,-121,-22,-24,24418,5158,5194,-68,39,-2
32767,19756,6312,-95,-37,-31,24000,4938,5174,-53,49,15
32767,19850,6186,15,-47,-33,23894,5036,5196,-36,34,8
32767,20756,6044,120,-33,-20,24106,5220,5216,-38,19,2
32767,21422,6198,70,-25,-17,24342,5000,5170,-43,27,6
32767,21538,6432,-32,-40,-20,24352,4938,5228,-24,33,11
32767,20962,6472,-114,-78,-14,24276,5134,5238,-6,37,11
32767,20394,6222,-97,-102,6,24214,5332,5230,7,34,12
32767,20258,5782,-40,-94,23,24118,5474,5142,11,33,11
32767,20566,5540,-3,-5,21,24168,5590,5288,8,18,6
32767,20458,6126,-89,45,6,24278,5680,5272,-12,13,2
32767,20034,6822,-133,21,-23,24334,5514,5378,-33,15,9
32767,19802,6922,-90,-51,-39,24250,5320,5230,-49,22,12
32767,19996,6588,26,-122,-26,24082,5164,5158,-45,28,18
32767,20680,5772,97,-137,-11,24148,5154,5108,-40,24,19
32767,21048,5272,58,-84,2,24254,5140,5090,-34,25,8
32767,20788,5344,-21,5,-5,24338,5092,5246,-33,36,10
32767,20542,5886,-49,66,-18,24234,5118,5312,-33,49,20
32767,20614,6928,-40,36,-21,23972,5098,5224,-22,41,28
32767,20848,6840,-55,-36,-24,23908,5332,5268,-8,24,14
32767,20640,6496,-86,-101,-5,24056,5452,5214,-2,9,6
32767,20236,5870,-53,-115,13,24452,5482,5134,-6,17,-5
32767,20068,5498,17,-73,26,24420,5408,5168,-15,37,-1
32767,20260,5686,43,-3,16,24170,5332,5312,-23,55,13
32767,20372,6038,-2,51,-12,23978,5322,5320,-37,50,11
32767,20806,6776,-13,-3,-23,24010,5176,5246,-39,36,14
32767,20848,6816,-32,-73,-18,24108,5260,5176,-32,25,8
32767,20636,6396,-41,-135,2,24166,5302,5108,-23,25,9
32767,20390,5822,-21,-148,2,24208,5300,5190,-22,34,0
32767,20526,5380,4,-94,-10,24212,4966,5194,-20,38,16
32767,20826,5444,1,-18,2,24180,5190,5292,-15,40,11
32767,20814,6228,-85,41,3,24144,5402,5230,-18,31,12
32767,20264,6698,-117,13,-5,24100,5308,5244,-27,25,11
32767,19756,6746,-64,-51,2,24142,5410,5198,-24,19,7
32767,20076,6496,25,-109,-2,24180,5510,5270,-27,16,-1
32767,20654,6000,42,-121,-12,24072,5424,5124,-47,25,2
32767,20862,5794,-5,-89,-13,23948,5166,5200,-45,22,7
32767,20714,5736,-32,-37,-11,24118,5220,5230,-30,14,-8
32767,20462,6054,-35,9,-3,24338,5178,5208,-28,13,0
32767,20480,6306,-25,13,-1,24266,5148,5168,-24,20,3
32767,20472,6630,-37,-36,-5,24196,5280,5248,-19,18,1
32767,20514,6586,-32,-90,-16,23998,5378,5152,-32,17,11
32767,20572,6052,-17,-123,-4,24060,5278,5202,-32,7,15
32767,20526,5570,0,-95,4,24222,5250,5138,-24,3,5
32767,20552,5606,16,-37,7,24352,5342,5252,-16,6,0
32767,20644,5868,-23,12,0,24256,5246,5220,-29,18,3
32767,20536,6470,-76,11,-23,24210,5142,5242,-28,22,11
32767,20420,6538,-61,-25,-11,24084,5280,5210,-27,21,19
32767,20342,6258,-1,-68,6,24146,5372,5210,-25,8,21
32767,20566,6198,26,-86,6,24210,5384,5240,-29,13,9
32767,20702,6202,1,-95,-8,24226,5228,5124,-26,12,11
32767,20722,6340,-64,-118,-21,24266,5200,5294,-16,18,4
32767,20400,6060,-85,-122,-22,24180,5264,5240,-24,31,11
32767,20188,5526,-28,-96,1,24058,5244,5282,-28,28,22
32767,20654,5280,61,5,25,24122,5312,5202,-23,12,12
32767,20906,5762,23,73,24,24216,5424,5144,-23,9,3
32767,20668,6638,-87,71,-10,24254,5276,5170,-31,9,5
32767,20182,6900,-122,15,-37,24284,5130,5300,-23,15,3
32767,20116,6688,-47,-61,-25,24072,5272,5174,-33,25,10
32767,20616,6302,43,-117,-7,24004,5268,5118,-27,18,14
32767,21010,5920,44,-118,12,24008,5336,5166,-27,9,5
32767,20734,5568,-22,-85,21,24358,5260,5150,-15,4,0
32767,20108,5712,-60,-12,-8,24472,5288,5362,-8,29,6
32767,20234,6028,-25,17,-26,24324,5340,5356,-26,44,11
32767,20606,6484,-16,11,-14,24038,5334,5294,-34,37,18
32767,20832,6636,-31,-35,-10,23922,5346,5240,-37,18,7
32767,20716,6462,-57,-79,-17,24064,5334,5142,-34,-1,4
32767,20502,5920,-35,-92,0,24254,5232,5198,-27,-10,0
32767,20368,5586,9,-61,11,24424,5266,5186,-25,12,-3
32767,20562,5542,-3,-1,-7,24362,5200,5244,-37,32,5
32767,20498,6578,-83,11,-52,24198,4966,5272,-27,41,21
32767,20436,6836,-79,-36,-61,24154,5370,5202,-13,39,22
32767,20380,6412,-6,-87,-23,24130,5514,5286,-14,26,19
32767,20710,6048,73,-104,15,24152,5392,5176,-18,15,10
32767,20948,5628,63,-84,23,24200,5528,5118,-23,16,-8
32767,20898,5750,-32,-39,12,24230,5444,5136,-35,21,-3
32767,20500,6098,-122,-12,-11,24372,5206,5124,-40,35,-2
32767,20010,6406,-83,-19,-29,24172,5222,5276,-41,42,8
32767,20206,6516,13,-51,-6,24034,5174,5268,-29,25,8
32767,20618,6396,58,-83,1,24004,5292,5208,-14,10,-7
32767,20838,6192,22,-95,-6,24178,5332,5260,-16,4,-7
32767,20738,5874,-29,-93,-10,24262,5370,5180,-28,18,-1
32767,20574,5984,-51,-78,-19,24278,5266,5246,-34,25,13
32767,20552,5974,-35,-52,-17,24142,5260,5192,-41,33,8
32767,20718,5930,-12,-30,9,24052,5156,5162,-35,22,12
32767,20748,6052,-37,-9,15,24154,5132,5176,-28,4,-7
32767,20472,6414,-63,-20,3,24088,5284,5222,-20,-8,-5
32767,20228,6540,-40,-57,-13,24258,5300,5238,-18,-5,1
32767,20432,6380,15,-96,-12,24418,5404,5184,-22,11,3
32767,20952,5832,-17,-88,-1,24326,5254,5224,-31,24,24
32767,20550,5728,-86,-26,7,24188,5156,5206,-16,19,15
32767,20094,5976,-79,11,4,24256,5420,5252,-10,14,6
32767,20034,6606,-50,-11,-9,24370,5442,5262,-14,13,17
32767,20012,6766,-24,-69,-22,24324,5410,5266,-26,19,14
32767,20206,6328,28,-125,-30,24232,5242,5194,-46,16,16
32767,20844,5712,61,-129,-27,24192,5174,5286,-44,14,9
32767,21252,5324,35,-73,-17,24028,5178,5204,-38,10,14
32767,21272,5726,-62,30,3,24082,5194,5194,-29,2,9
32767,20744,6536,-144,51,-12,24122,5146,5188,-29,2,8
32767,20330,6940,-121,2,-17,24378,5042,5236,-20,-1,6
32767,20324,6674,-41,-80,11,24434,5200,5324,-22,13,5
32767,20580,6050,9,-125,32,24256,5240,5256,-22,16,32
32767,20670,5482,-17,-103,29,24302,5340,5202,-10,15,29
32767,20584,5660,-98,-52,2,24328,5460,5156,5,16,9
32767,20226,6156,-144,1,-26,24442,5722,5260,4,27,13
32767,20022,6750,-74,-18,-16,24280,5694,5326,-34,36,10
32767,20208,6684,22,-79,3,24056,5304,5312,-61,36,26
32767,20304,6336,66,-131,10,23984,5030,5208,-62,21,30
32767,20442,6156,71,-160,1,24102,5072,5208,-48,13,14
32767,20852,5720,18,-138,-32,24280,5170,5042,-30,11,15
32767,20888,5460,-49,-73,-29,24430,5284,5208,-21,24,15
32767,20630,5512,-61,6,-6,24184,5354,5230,-46,35,24
32767,20456,6060,-24,47,5,24160,5138,5268,-43,20,15
32767,20594,6962,-4,-13,1,24186,5100,5366,-30,8,0
32767,20786,6958,-30,-101,-28,24452,5024,5128,-11,-2,-5
32767,20666,6296,-53,-153,-22,24510,5242,5190,6,13,-2
32767,20496,5552,-17,-132,11,24292,5452,5152,-12,20,13
32767,20396,5010,31,-48,46,24076,5296,5166,-25,21,21
32767,20298,5670,3,29,39,24106,5298,5150,-11,13,10
32767,20246,6422,-55,65,-26,24430,5450,5120,3,17,9
32767,20372,6926,-114,18,-73,24474,5582,5474,-3,25,6
32767,20424,6614,-55,-70,-34,24328,5492,5394,-40,29,6
32767,20716,6088,19,-96,2,24216,5228,5198,-51,13,2
32767,20968,5668,35,-65,18,24202,5178,5088,-42,9,-11
32767,20832,5896,-15,-26,15,24320,5182,4970,-27,8,-2
32767,20676,6280,-47,-4,-6,24474,5290,5168,-11,23,-4
32767,20530,6624,-71,-33,-7,24506,5306,5288,-38,44,-5
32767,20374,6450,-54,-77,-11,24194,4802,5204,-37,47,13
32767,20428,5914,-31,-104,5,24010,5150,5280,-13,43,10
32767,20186,5626,-18,-73,12,24102,5566,5180,-10,23,20
32767,20240,5948,-19,-38,-14,24142,5608,5124,-13,12,21
32767,20348,6174,-19,-8,-37,24326,5544,5270,-3,-1,15
32767,20520,6370,-30,-18,-31,24390,5606,5320,-23,1,-1
32767,20734,6322,-31,-34,-26,24346,5378,5332,-34,-2,-7
32767,20786,6392,-55,-56,-23,24298,5138,5158,-54,4,-9
32767,20610,6266,-52,-71,-16,24406,5156,5062,-35,8,4
32767,20424,6294,-22,-96,-12,24460,5178,5204,-29,22,14
32767,20742,5972,22,-91,-9,24444,5132,5240,-16,28,10
32767,20882,5606,-4,-63,15,24210,5140,5238,-22,32,2
32767,20576,5524,-52,-6,20,24150,5222,5240,-18,19,10
32767,20196,6040,-80,32,-4,24202,5374,5172,-21,15,6
32767,20058,6624,-51,15,-22,24342,5394,5234,-12,8,13
32767,20232,6868,-2,-40,-16,24360,5522,5238,-19,13,8
32767,20578,6528,13,-97,-5,24206,5404,5270,-21,10,1
32767,20610,5920,-14,-106,-3,24152,5380,5236,-40,5,-8
32767,20456,5722,-28,-66,-6,24402,5246,5150,-41,2,-3
32767,20326,5942,-24,-22,-28,24408,5256,5154,-34,15,5
32767,20680,6154,8,-1,-18,24382,5200,5124,-21,21,0
32767,20744,6320,10,-6,13,24324,5268,5314,-29,35,-8
32767,20734,6316,17,-30,13,24168,5066,5246,-37,32,9
32767,20966,6378,-9,-59,1,24216,5106,5212,-25,16,4
32767,20940,6286,-45,-77,6,24394,5298,5212,-10,6,-1
32767,20682,5992,-78,-87,18,24560,5452,5230,-7,10,2
32767,20154,5940,-62,-55,10,24412,5204,5242,-18,10,-2
32767,20224,5882,-34,-31,8,24390,5156,5198,-14,8,3
32767,20186,6160,-35,-19,1,24448,5390,5320,-5,14,16
32767,20168,6342,-44,-40,-21,24506,5640,5328,-19,16,25
32767,20092,6488,-32,-90,-41,24494,5550,5288,-37,20,29
32767,20326,5984,48,-102,-25,24272,5462,5228,-50,26,30
32767,21180,5632,66,-70,-4,24192,5370,5202,-45,22,26
32767,21288,5496,-36,-4,1,24296,5410,5188,-53,24,7
32767,20712,5958,-135,33,-8,24228,5106,5140,-54,23,6
32767,20338,6600,-135,27,-27,24144,5034,5092,-37,28,1
32767,20304,6718,-95,-17,-29,24300,5086,5188,-16,28,1
32767,20488,6300,-32,-68,-2,24366,5188,5194,-21,35,1
32767,20422,6038,-5,-68,10,24216,5150,5202,-19,38,6
32767,20268,6032,2,-54,8,24080,5182,5194,-7,30,-2
32767,20408,6148,-11,-45,-17,24278,5532,5176,-1,22,-13
32767,20760,6174,-64,-37,-27,24576,5464,5204,-6,30,-4
32767,20494,6074,-107,-21,-12,24682,5636,5344,-12,48,-1
32767,20114,6184,-81,-18,-3,24368,5474,5284,-47,55,12
32767,19916,6424,-1,-31,-5,24146,5132,5196,-53,37,9
32767,20650,6446,45,-88,-31,24106,5206,5234,-38,17,-1
32767,21028,6056,-34,-95,-41,24308,5348,5176,-24,5,-2
32767,20838,5518,-79,-54,-18,24468,5336,5174,-32,15,-5
32767,20518,5602,-62,2,22,24436,5276,5260,-49,26,5
32767,20188,5950,-29,55,26,24250,4978,5204,-47,30,12
32767,20240,6376,-35,58,5,24182,5156,5124,-25,24,15
32767,20366,6456,-62,38,-17,24284,5402,5230,-10,15,4
32767,20328,6212,-69,30,-24,24350,5452,5354,-17,16,2
32767,20200,5972,-8,35,0,24446,5352,5268,-42,23,7
32767,20500,6024,38,46,6,24256,5228,5238,-45,29,15
32767,20770,6034,1,59,-3,24110,5234,5066,-31,25,12
32767,20560,5836,-54,81,-10,24276,5364,5172,-13,16,-4
32767,20388,5742,-59,122,-6,24486,5262,5214,-24,22,3
32767,20400,5984,-45,154,7,24452,5170,5312,-31,28,6
32767,20374,6250,-40,166,0,24272,5218,5284,-37,35,18
32767,20378,6602,-47,164,-7,24304,5176,5092,-32,29,18
32767,20348,5300,-42,149,-5,24290,5346,5280,-15,20,2
32767,20272,4878,-38,261,-15,24294,5358,5196,-15,24,10
32767,20032,5526,-19,351,-30,24220,5396,5166,-24,21,5
32767,20158,5976,38,397,-37,24288,5372,5206,-28,22,11
32767,20572,6116,61,396,3,24312,5318,5244,-38,23,9
32767,20676,5714,67,434,-5,24356,5234,5166,-21,29,8
32767,20864,5290,32,498,-19,24262,5284,5244,-25,33,8
32767,20654,5224,23,600,7,24234,5178,5318,-27,23,11
32767,20706,5112,26,711,57,24246,5280,5272,-37,18,-2
32767,20528,5102,19,813,53,24434,5104,5106,-18,11,14
32767,20564,5110,-42,930,-4,24486,5220,5216,2,34,5
32767,20442,4710,-36,1032,0,24128,5430,5330,-4,43,15
32732,20200,4810,-43,1129,15,24162,5446,5314,-8,27,14
32152,20152,5146,16,1197,-13,24386,5372,5138,-29,11,-7
31790,19898,4490,40,1267,-63,24406,5140,5222,-10,15,0
30536,20474,5376,68,1437,-188,24356,5300,5230,-14,31,4
29908,20394,6034,12,1353,-271,24378,5494,5270,-5,36,14
29724,20362,5732,18,1264,-231,24366,5444,5346,-28,44,7
29590,20568,5468,68,1162,-107,24332,5198,5208,-49,45,13
29746,20530,4680,227,1094,35,24286,5112,4952,-33,53,24
29784,20696,4034,367,1139,53,24210,5286,5212,2,54,20
29372,21476,4208,374,1201,-30,24210,5658,5286,-12,51,4
28858,21830,4390,247,1245,-25,24292,5260,5150,-2,47,9
28302,21328,4174,95,1221,44,24220,5384,5226,6,57,-3
27648,21164,4794,39,1169,38,24000,5130,5476,-21,45,2
27148,20960,5068,37,1052,32,24064,4908,5188,-22,24,19
26944,20762,4946,84,883,44,24368,4886,5116,10,13,15
27134,20798,4108,150,750,41,24390,5554,5140,47,24,-6
27580,20608,3096,189,715,-4,24326,6170,5366,48,35,-5
27962,20902,2048,251,914,-94,24066,5522,5194,-33,19,-4
27570,20826,1584,254,1119,-122,24294,4944,4932,-31,15,4
26602,21570,2368,275,1236,-129,24510,5010,5224,26,37,0
25584,21808,3228,219,1243,-109,24348,5690,5432,28,48,4
25228,21658,3228,214,1140,-82,24130,5612,5408,-18,35,7
25332,21740,2674,220,1018,-60,24088,5348,5114,-28,20,-2
25462,21504,2160,216,939,-45,24154,5410,5182,-21,3,-4
25508,21078,1040,209,963,-54,24370,5496,5140,-12,-3,-10
25216,20902,938,271,1057,-118,24226,5422,5254,-12,5,-4
24700,21598,1758,281,1082,-167,24376,5130,5146,-2,8,13
24028,21658,1836,219,1031,-218,24312,5182,5046,21,32,10
23868,21564,1286,165,952,-272,24144,5498,5424,34,28,20
24414,21462,598,148,915,-277,24212,5600,5304,9,23,24
24648,21628,206,178,946,-228,24280,5744,5160,-9,24,8
24326,21702,-522,254,1028,-191,24246,5636,5244,-25,23,2
24112,21844,-1098,283,1140,-205,24202,5372,5084,-25,20,2
23806,21976,-1212,262,1268,-231,24272,5264,5300,11,21,-6
22790,22238,334,170,1279,-245,24344,5558,5442,24,24,-2
22068,21704,714,62,1146,-255,24382,5666,5360,8,27,5
21510,21278,476,49,951,-245,24152,5674,5234,-27,32,9
21436,21292,40,75,740,-215,24198,5376,5224,-34,32,14
21818,21398,-842,113,621,-187,24264,5304,5214,-25,29,12
22254,22094,-1610,153,549,-147,24410,5462,5242,2,41,22
22604,22316,-1950,129,548,-96,24342,5746,5182,14,61,25
22912,22032,-2090,101,587,-12,24158,5936,5326,8,59,21
22744,21888,-2430,112,649,45,24194,5730,5274,-9,57,20
22346,21914,-2734,111,710,12,24116,5468,5330,-19,53,14
22240,21876,-2918,87,788,-21,23980,5520,5210,-28,61,18
22168,21538,-2934,79,832,-2,24076,5596,5188,-28,40,17
21780,21428,-2250,74,808,13,24192,5410,5290,-35,36,15
20632,21334,-2070,22,679,-45,24292,5416,5240,-27,42,18
20606,21266,-2488,-2,492,-109,24256,5664,5244,-12,54,20
21202,21296,-3130,26,406,-79,24304,5674,5236,-24,62,19
21630,21374,-3504,62,412,-42,24336,5666,5314,-31,69,32
21894,21344,-3802,103,441,-19,24208,5904,5342,-38,80,33
21776,21360,-4050,126,497,-35,23936,5780,5352,-59,79,37
21428,21862,-3854,124,507,-77,23978,5550,4938,-62,67,28
20868,22308,-3246,33,451,-91,24080,5400,5168,-54,70,3
20288,22004,-3236,-57,342,-69,24062,5470,5224,-54,77,-2
20438,21356,-3672,-64,226,-52,23856,5496,5302,-70,72,20
20962,21410,-3944,16,164,-10,23766,5186,5092,-86,47,19
21156,21394,-3974,72,103,52,23960,5050,5238,-52,22,0
20888,21420,-4054,28,74,-16,24236,5314,5226,-27,28,8
21090,21320,-4354,-99,71,-165,24420,5608,5226,-11,49,20
21550,20966,-4768,-135,97,-221,24150,5886,5094,-24,62,21
21432,21168,-4452,-16,126,-163,23844,5666,5058,-44,48,16
21134,21674,-4438,60,128,-87,23858,5416,5244,-42,36,12
20738,21780,-4398,38,128,-40,23982,5564,5304,-38,28,3
20796,21746,-4822,-31,100,-94,24082,5606,5292,-56,21,6
20916,21748,-4410,-103,122,-125,23916,5140,5104,-69,14,5
21032,21534,-4442,-85,78,-48,24022,5248,5156,-35,13,-5
21018,21302,-4658,-62,80,14,24196,5844,5402,-20,16,3
21214,21074,-4820,15,100,73,24184,5800,5306,-71,19,12
21062,21402,-4918,65,117,76,24030,5222,5178,-100,21,8
20760,21732,-4536,-25,107,-13,24022,4764,5102,-71,26,5
20712,21010,-4386,-109,62,-28,24074,5168,5204,-17,37,5
20902,20384,-4604,-76,13,-49,23994,5608,5386,-8,46,16
21130,20640,-4976,25,16,-67,23932,5886,5442,-33,34,20
21022,21200,-5006,67,42,-70,23938,5410,5070,-81,22,15
20854,21546,-4844,14,34,-114,24010,5054,5212,-42,15,2
20786,21662,-4798,-60,7,-151,24078,5302,5264,-27,27,-3
20748,21450,-4904,-85,0,-132,24170,5410,5294,-24,33,11
21200,21306,-5054,-28,24,-112,24064,5600,5214,-11,35,13
20648,21424,-4614,31,-21,-29,23912,5588,5148,-31,30,7
20196,21474,-4872,9,-56,14,23850,5326,5104,-55,22,3
20572,21490,-4922,-5,-75,29,24012,5154,5082,-62,18,-1
21504,21080,-5196,-28,-62,25,24268,5128,5272,-48,28,1
21516,20700,-5290,-11,36,-35,24150,5226,5090,-29,42,13
21054,20974,-4834,13,50,-79,23844,5310,5110,-9,45,6
20374,21300,-4682,5,6,-67,23838,5386,5290,-3,30,2
20210,21494,-5092,-40,-30,-64,24080,5540,5388,-10,29,8
20952,21442,-5336,-66,-14,-61,24170,5662,5190,-21,34,16
21586,21302,-5422,-39,27,-34,23956,5356,5052,-40,39,5
21220,21380,-5092,-39,54,-20,23778,5130,5114,-20,29,-2
20468,21256,-4950,-60,46,-15,23812,5358,5296,7,15,-8
20280,21068,-4846,-80,15,-48,24066,5622,5290,-1,8,-8
20650,20932,-4994,-82,-14,-46,24364,5622,5320,-21,14,0
21090,20832,-5426,-36,-3,-30,24334,5566,5110,-51,40,9
21360,21056,-5552,2,51,-43,23982,5104,4928,-61,54,17
20984,21202,-5216,-30,85,-53,23720,4910,5212,-17,48,11
20264,21116,-4782,-66,64,-54,23770,5370,5402,10,34,1
20090,20998,-4656,-67,0,-53,24034,5672,5268,-2,22,11
20890,21122,-5262,2,-57,-12,24056,5720,5088,-15,36,10
21280,21516,-5608,5,-32,-2,23912,5530,5286,-33,41,6
21058,21396,-5280,-64,14,3,23878,5340,5294,-33,34,4
20472,20920,-5058,-44,8,46,23788,5408,5224,-34,27,-2
20260,20824,-4918,18,-20,56,23910,5236,5176,-36,16,-1
20596,20986,-4902,10,-63,18,24032,5302,5246,-21,16,-6
21134,20976,-5278,-3,-80,12,24126,5468,5140,-15,25,4
21038,21040,-5498,-3,-47,22,23996,5398,5158,-19,36,6
20730,21320,-5228,3,-10,25,23728,5342,5284,-15,26,-1
20516,21292,-5046,-19,-34,0,23864,5252,5314,-14,6,1
20646,21380,-5176,-59,-70,-41,24168,5374,5222,0,7,1
20868,21106,-5540,-68,-69,-20,24316,5622,5266,7,17,10
20890,21110,-5438,-25,-29,17,23958,5570,5192,-14,29,7
20710,21314,-5070,-1,-21,64,23766,5402,5314,-20,21,-2
20414,21378,-5104,-25,-40,57,23842,5392,5184,-15,6,-2
20718,21326,-5208,-77,-51,-9,24122,5410,5128,-19,3,-6
20924,20810,-5304,-70,-57,4,24148,5266,5252,-20,21,4
20994,20946,-5532,-20,-44,-9,24038,5304,5190,-9,30,18
20912,21260,-5384,-30,-8,-23,23834,5544,5180,0,25,10
20638,21254,-5114,-33,-14,22,23866,5756,5158,-5,18,1
20522,21218,-5124,-29,-35,45,23942,5618,5244,-35,17,11
20646,21194,-5308,-26,-35,27,23974,5294,5252,-34,19,20
20950,21108,-5326,-55,-31,-23,23970,5224,5144,-14,12,16
20942,21202,-5408,-73,-26,-58,23904,5562,5242,20,12,-3
20938,21344,-5370,-60,-13,-25,23968,5908,5312,6,10,8
20898,21276,-5408,-36,15,38,24028,5786,5214,-38,9,15
20514,21338,-5146,-12,22,76,24094,5330,5156,-51,7,11
20276,21230,-5032,-30,-10,68,24096,5332,5260,-31,14,5
20494,21200,-5248,-30,-54,34,23994,5392,5126,-32,20,9
21114,21118,-5524,-61,-44,-3,23890,5156,5110,-16,17,10
21304,21022,-5542,-38,-3,29,24004,5402,5278,13,19,4
20894,21212,-5430,0,19,47,24028,6036,5326,-12,22,19
20636,21314,-5300,-15,22,38,24036,5640,5210,-49,17,13
20772,21212,-5402,-54,14,-23,23946,5248,5112,-48,18,7
20920,20976,-5488,-89,19,-74,24026,5162,5144,-16,23,10
20786,21042,-5480,-78,38,-71,24108,5470,5286,8,31,6
20584,21082,-5150,-42,34,-31,23960,5688,5214,1,30,11
20410,21098,-5048,17,7,65,23768,5700,5312,-14,17,4
20126,21394,-5470,80,-38,108,23962,5750,5296,-33,2,-2
21274,22022,-5924,19,-11,17,24374,5376,5188,-62,14,9
21404,21726,-5646,-82,42,21,24258,5140,5168,-43,36,19
20320,20874,-4938,-115,44,19,23944,5338,5258,-7,51,16
19778,20644,-4736,-63,-41,-18,23934,5844,5246,-5,54,10
19970,20794,-5134,2,-119,5,23996,5828,5178,-34,50,14
21614,21836,-6266,39,-65,7,23974,5364,5132,-58,52,14
21192,21810,-5684,-36,8,31,23896,5116,5108,-35,50,14
20272,21224,-5054,-65,10,39,23986,5064,5096,-5,50,3
19910,21100,-4876,-38,-58,5,23958,5244,5198,23,52,-5
20392,21144,-5250,-28,-130,-10,23790,6012,5440,37,37,10
20940,21364,-5838,2,-123,-12,24032,6224,5212,-15,23,5
21366,21634,-5752,0,-72,-7,24208,5702,5104,-57,31,11
21144,21490,-5546,-19,-41,28,23956,5302,5208,-48,38,14
20332,21142,-5058,-27,-33,26,23834,5250,5272,-41,28,-8
20284,21138,-4942,0,-81,28,23770,5230,5220,-32,12,-5
20572,21292,-5282,-7,-123,-18,23902,5380,5186,-15,6,3
21020,21124,-5552,-51,-128,-66,24014,5628,5096,-10,10,6
21122,20870,-5518,-100,-93,-154,23952,5546,5184,-5,18,18
20954,20866,-5466,-91,-69,-190,23910,5680,5378,-7,16,14
20538,21236,-5410,-24,-56,-135,23940,5670,5170,-27,7,4
20430,21942,-5332,29,-63,-48,23986,5434,5288,-30,4,0
20524,22214,-5472,-2,-77,74,24040,5530,5094,-22,5,10
20664,21654,-5328,-63,-78,85,24052,5518,5158,-9,10,10
20880,21058,-5256,-99,-89,30,24008,5620,5252,-13,18,8
20940,20784,-5454,-93,-75,-26,24018,5526,5268,-23,20,16
20974,20958,-5400,-72,-57,-46,23952,5516,5350,-29,8,7
20842,21026,-5314,-37,-48,-20,24060,5686,5314,-52,2,4
20636,21186,-5280,5,-54,-4,24250,5722,5240,-62,9,5
20714,21284,-5222,-36,-66,-8,24092,5432,5074,-80,30,11
20588,20970,-5386,-50,-56,-26,23916,4944,5210,-49,39,24
20918,20896,-5306,-40,-50,-59,23730,5008,5168,2,38,28
20966,21152,-5436,-15,-52,-50,23840,5612,5298,44,28,25
20744,21438,-5308,-8,-43,-34,23888,6124,5364,37,9,20
20600,21682,-5224,-29,-46,-25,24048,6166,5280,-16,-2,4
20594,21706,-5276,-49,-58,-10,24144,5754,5282,-57,1,5
20626,21400,-5202,-56,-67,14,24100,5272,5020,-66,11,16
20630,20978,-5266,-40,-86,14,23998,5036,5130,-43,21,14
21058,21120,-5506,-27,-71,-6,23996,5380,5182,-17,23,9
21234,21184,-5562,-38,-33,-11,24062,5672,5258,-13,14,-1
20784,21212,-5358,-50,-9,-23,23852,5704,5380,-22,29,15
20376,21098,-5098,-59,-26,-29,24028,5526,5092,-38,16,21
20368,21182,-5172,-28,-66,-3,23996,5334,5134,-21,20,6
20756,21142,-5350,-7,-80,30,23988,5420,5198,-6,29,22
20942,21018,-5532,4,-67,53,24040,5756,5252,7,31,18
20806,21160,-5342,-38,-37,-31,24026,5932,5338,-14,25,15
20630,21320,-5188,-70,-46,-78,24022,5712,5310,-38,18,20
20674,21438,-5126,-71,-64,-65,23982,5548,5286,-30,17,16
20872,21374,-5292,-39,-68,0,24034,5528,5252,-27,22,11
21048,21352,-5278,9,-49,67,24064,5512,5156,-33,23,20
20740,21222,-5164,4,-40,71,24016,5590,5186,-37,27,13
20576,21060,-4996,-35,-55,15,23882,5554,5230,-46,26,11
20622,21066,-5080,-50,-81,-44,23718,5342,5224,-43,21,9
21024,21028,-5272,-31,-55,1,23854,5248,5208,-26,11,8
20890,21202,-5322,7,-40,36,24044,5336,5170,-5,10,2
20668,21332,-5144,-8,-36,50,24102,5828,5272,-1,14,2
20390,21244,-5026,-43,-63,19,24008,5928,5248,-30,15,1
20510,21186,-5124,-61,-104,-24,23872,5562,5210,-49,12,4
20866,21250,-5414,-53,-110,-33,24118,5326,5124,-39,11,9
21222,21142,-5484,-46,-77,-28,24146,5418,5198,-2,18,6
21060,21294,-5400,-17,-14,-7,24122,5736,5300,5,23,3
20598,21524,-5102,-3,-8,21,24036,5906,5312,-21,17,-4
20228,21464,-4804,-32,-48,24,24032,5694,5270,-47,12,2
20534,21100,-4892,-70,-106,-8,24072,5310,5180,-57,10,16
21002,20744,-5264,-74,-106,-33,24096,5070,5202,-42,14,15
21222,20886,-5394,-30,-68,-44,24084,5354,5218,-6,22,11
21014,21380,-5400,6,-32,-9,24062,5554,5300,0,24,6
20566,21598,-5172,-11,-23,12,23944,5796,5346,-11,20,10
20508,21316,-4792,-82,-58,-4,23896,5734,5298,-31,10,10
20782,20878,-5082,-23,-94,2,23990,5612,5236,-37,2,13
20904,20970,-4992,-30,-94,-33,24214,5422,5196,-30,4,11
20862,21170,-5288,-23,-98,-30,24170,5452,5188,-14,21,8
20890,21688,-5474,-31,-73,-55,23944,5590,5196,-5,33,17
20792,21540,-4922,-55,-54,40,23814,5726,5174,-6,21,15
20366,21038,-4656,-57,-98,58,23940,5824,5304,-23,6,5
20354,20946,-4756,-41,-173,25,24272,5616,5270,-44,5,6
20848,20968,-4932,-37,-202,6,24208,5230,5042,-43,17,13
21092,21034,-5092,-48,-201,0,23978,5176,5212,-12,29,10
20934,21232,-4786,-53,-226,2,23832,5726,5166,4,24,12
20656,21340,-4474,-78,-278,17,23940,5924,5258,-22,11,12
20708,21014,-4462,-89,-361,64,24098,5496,5354,-43,2,10
20808,21124,-4610,-59,-392,75,24270,5474,5232,-32,10,7
21162,21410,-4968,-39,-386,44,24168,5438,5160,-24,19,10
21440,21580,-5422,-29,-272,28,23958,5592,5234,-3,24,13
21714,21534,-4760,26,-197,72,23954,5774,5274,-9,16,23
21310,21430,-4076,10,-216,65,24036,5540,5174,-12,7,14
20664,21518,-4074,-13,-262,56,24050,5626,5222,2,4,-3
20410,21758,-4660,-11,-239,81,23958,5746,5246,-6,1,-4
21298,21490,-4844,-10,-161,103,24076,5536,5144,-29,-5,3
21908,21304,-4570,-52,-126,31,24222,5262,5000,-19,-5,4
21442,20850,-4362,-142,-99,-68,24048,5292,4946,21,6,0
21082,20560,-4296,-165,-84,-133,23944,5398,5192,58,-3,-3
21146,20754,-4530,-102,-44,-134,24192,5376,5250,76,-3,-4
21242,21364,-4532,20,2,-35,24348,5606,5270,96,15,0
21296,21950,-4488,48,26,35,24220,5952,5600,77,23,17
20878,21922,-4080,-25,27,67,24100,6300,5278,30,13,39
20392,20826,-3386,-61,-90,56,24114,6212,5046,11,-2,28
20554,20890,-3764,-9,-198,5,24214,5948,5212,5,-10,-14
21226,21250,-4708,10,-193,-12,24214,5726,5476,-3,-3,0
22170,21622,-5332,30,-82,-17,24144,5692,5526,-42,-13,32
22434,21918,-5084,10,56,-25,24058,6042,5178,-39,-22,29
21638,21670,-4280,-62,122,0,24158,6118,5212,-44,-36,0
20272,21186,-3686,-95,91,-3,24438,5908,5078,-71,-31,-9
19850,20942,-3370,-65,-16,-20,24466,5422,5132,-71,8,10
20774,21244,-4112,0,-157,1,24164,5072,5202,-67,29,17
21626,21290,-5058,17,-112,16,24054,5152,5072,-17,28,31
22258,21396,-5142,30,3,6,24138,5810,5122,22,28,16
21878,21570,-4454,-21,71,-37,24052,6126,5180,21,19,7
20654,21570,-3998,-72,61,-45,24128,5896,5212,0,4,-7
20028,21332,-3734,-85,-6,-32,24230,5816,5418,-6,2,-19
20380,21016,-3794,-50,-101,7,24424,5646,5362,-20,2,9
20962,21004,-4266,28,-164,57,24498,5874,5280,-19,21,22
21776,21710,-5152,77,-94,33,24348,6046,5084,-21,36,24
22126,21946,-4792,-40,4,-39,24146,5854,5170,-21,43,7
21374,21296,-4156,-134,41,-48,24042,5790,5216,-29,42,8
20328,20790,-3710,-97,12,-53,23956,5604,5164,-37,27,14
20308,21108,-3754,14,-79,-37,24054,5594,5350,-22,8,6
21066,21528,-4378,49,-133,1,24406,5834,5314,-24,3,18
21604,21680,-4776,21,-101,24,24556,6186,5010,-34,23,12
21542,21500,-4704,-13,-23,46,24284,5856,5060,-46,39,6
21118,21278,-4316,-32,6,27,24004,5552,5256,-40,41,5
20826,21154,-4026,-31,-8,-17,23934,5468,5156,-28,29,8
20932,21434,-4190,-24,-38,-32,24048,5470,5200,-8,19,2
21164,21582,-4558,-23,-51,-8,24152,5570,5290,4,15,-1
21226,21664,-4540,-13,-24,25,24404,6336,5250,-3,14,17
21202,21470,-4460,-31,-4,35,24368,6226,5102,-36,20,15
21114,21324,-4346,-71,-4,-13,24258,5732,5296,-50,26,-3
21132,21004,-4164,-67,-21,-34,24226,5524,5258,-43,29,2
20900,21236,-4172,-15,-40,-17,24148,5532,5288,-29,35,7
20800,21510,-4240,-9,-61,-4,24044,5604,5250,-25,27,10
21002,21536,-4434,-21,-79,3,24180,5750,5092,-19,18,12
21464,21356,-4472,-43,-31,-13,24200,5866,5262,-9,15,8
21276,21294,-4314,-39,-25,-7,24242,5998,5318,-19,15,4
20850,21326,-4080,-32,-42,2,24332,5852,5224,-37,16,3
20636,21254,-4088,-21,-99,10,24294,5656,5238,-40,27,7
20936,21326,-4282,-26,-121,-14,24106,5590,5178,-28,27,9
21474,21288,-4546,-27,-96,-17,24100,5764,5188,-16,18,9
21450,21414,-4452,-19,-56,-25,24156,6004,5312,-14,10,10
21088,21520,-4072,-26,-54,-13,24298,5954,5260,-30,10,6
20466,21492,-3662,-47,-133,-1,24386,5674,5220,-42,22,3
20674,21592,-4000,-28,-224,20,24322,5560,5250,-32,36,10
21300,21492,-4662,-33,-199,49,24070,5690,5210,-16,41,18
21834,21344,-4628,-24,-135,52,24054,5882,5270,-13,28,7
21646,21196,-4242,-29,-98,22,24212,5944,5168,-24,18,7
20980,21298,-3608,-45,-120,-9,24334,5840,5166,-34,23,3
20320,21304,-2942,-63,-233,-7,24252,5686,5190,-28,30,3
20374,21158,-3540,-34,-373,35,24104,5634,5146,-20,30,4
21474,21548,-4732,7,-317,-11,24058,5750,5326,-10,24,-2
22542,21908,-4726,-22,-229,-31,24216,5836,5390,-20,17,7
22394,21828,-4334,-66,-144,15,24352,5838,5180,-26,20,4
21190,21438,-3854,-74,-89,46,24226,5726,5088,-20,30,1
20584,21052,-3276,4,-118,77,24030,5740,5148,-17,29,2
20588,21044,-3318,91,-188,96,24038,5784,5204,-15,22,3
21030,21400,-3894,91,-187,40,24080,5764,5368,-11,11,10
22070,21434,-4216,5,-152,-53,24324,5926,5320,-18,0,16
22228,21484,-4070,-62,-80,-73,24374,6048,5090,-32,4,6
21374,21442,-3774,-50,-56,-14,24250,5830,5044,-37,9,-3
20840,21406,-3622,-36,-76,25,24094,5552,5072,-37,12,6
20762,21448,-3736,-23,-86,20,24110,5170,5420,-7,4,13
21652,21702,-4206,0,-61,3,24304,5858,5670,22,-4,20
22272,21916,-4244,-38,7,-33,24420,6564,5254,-30,-9,37
22016,21616,-3884,-93,59,-30,24448,5962,4996,-62,5,25
21034,21214,-3492,-63,69,8,24180,5608,5038,-39,14,4
20566,21218,-3064,-33,4,10,24224,5752,5222,-17,11,12
20686,21208,-3536,-3,-82,5,24182,5902,5334,-26,11,6
21548,21548,-4322,-11,-61,-59,24268,6040,5484,-49,8,14
22442,21560,-4432,-48,14,-67,24456,6040,5134,-77,9,14
22176,21338,-4098,-40,75,-13,24426,5578,4994,-82,19,3
20850,21358,-3486,-16,83,3,24374,5178,4894,-46,33,10
20208,21412,-2988,0,-6,10,24162,5266,5066,5,47,15
20520,21576,-3692,-34,-121,-30,24048,5736,5422,31,37,14
21676,21426,-4132,-42,-109,-56,24042,6152,5424,10,20,21
22498,21362,-4378,-9,-59,-21,24284,6284,5346,-20,12,21
21998,21684,-4294,-3,22,6,24510,5876,5130,-52,22,13
21014,21800,-3952,-21,62,26,24358,5628,5150,-36,38,8
20782,21616,-3606,-41,35,15,24210,5700,5192,-16,38,11
20944,21514,-3492,-68,-21,-16,24100,5664,5284,-15,30,1
21254,21018,-3860,-72,-35,6,24114,5810,5596,-14,23,7
21716,21048,-3994,19,-21,2,24374,5992,5240,-40,16,30
21514,21692,-3970,15,-12,-20,24474,5594,4920,-49,30,21
21030,21722,-3774,-46,-7,-16,24304,5442,5040,-13,43,18
20966,21528,-3590,-59,-41,-15,24044,5842,5178,8,43,2
21210,21314,-3872,-29,-59,-5,23946,5920,5514,6,28,3
21328,21424,-4116,6,-36,9,24148,6030,5474,-27,8,16
21620,21612,-4076,0,-27,-7,24394,5980,5134,-44,2,13
21458,21722,-4090,-44,-13,-30,24468,5730,5074,-36,19,3
21228,21360,-3872,-73,-3,-21,24324,5692,5184,-25,34,11
21216,21230,-3798,-38,-14,-10,24108,5726,5240,-12,38,14
21320,21404,-3966,3,-21,18,24036,5936,5260,-12,29,3
21324,21810,-4464,20,-3,38,24190,5786,5416,-26,18,10
21446,22136,-4480,-38,55,14,24478,5686,5182,-36,35,12
21624,21738,-4060,-127,84,-3,24244,5776,5082,-22,48,16
21212,21106,-3628,-144,78,3,24048,5798,5198,-12,41,9
20642,20990,-3188,-44,-83,18,24040,5770,5246,-13,24,7
20600,21168,-3342,-24,-187,20,24186,5812,5306,-6,16,3
20988,21390,-3588,-38,-278,2,24360,5948,5364,-25,20,10
21280,21356,-3790,-53,-313,16,24274,5970,5132,-37,22,16
21442,21424,-3782,-36,-314,16,24142,5828,5134,-40,30,4
21504,21782,-3980,-12,-276,32,24184,5828,5302,-36,22,5
21432,22056,-3916,5,-217,75,24356,5754,5240,-32,21,5
21546,22318,-3750,5,-221,109,24290,5698,5224,-27,31,6
21350,22264,-3418,-39,-226,135,24154,5732,5250,-22,35,8
21172,21616,-3492,-74,-235,172,24098,6004,5328,-21,28,17
21428,21010,-3762,-52,-220,147,24112,6178,5154,-34,11,15
21870,20904,-4104,-21,-166,79,24252,5852,5156,-48,6,1
22060,21298,-3930,-3,-115,40,24368,5772,5158,-41,10,-6
21576,21624,-3364,-90,-84,21,24150,5350,5166,-35,19,0
21038,21302,-2916,-122,-111,46,24108,5460,5118,-9,20,0
20936,21034,-3278,-56,-170,30,24138,5528,5172,14,11,1
21426,21552,-3288,14,-199,-50,24370,5602,5154,29,7,0
21800,22190,-3386,27,-220,-31,24402,5724,5216,54,16,2
21896,22320,-3526,-14,-203,35,24374,6104,5324,44,23,3
21842,22090,-3456,-73,-175,83,24284,6314,5408,21,23,12
21636,21566,-3150,-91,-189,124,24192,6220,5214,-10,19,21
21046,21444,-2892,-43,-184,78,24356,6140,5316,-21,15,1
21420,21680,-2780,-38,-234,19,24334,6018,5340,-36,14,5
21772,21622,-2664,-46,-278,26,24274,5968,5376,-50,8,-1
21538,21536,-2112,-54,-369,69,24254,5796,5154,-68,-3,-3
21070,21334,-1948,-19,-515,134,24184,5526,5016,-61,1,3
21102,21180,-2842,34,-606,137,24196,5384,5056,-37,8,5
21252,21910,-2724,56,-594,24,24292,5384,5090,-8,12,13
22146,22144,-2352,-29,-615,-81,24348,5782,5204,22,18,20
22248,21564,-1384,-132,-718,-88,24204,6414,5368,6,19,13
21692,21094,-1104,-57,-857,-16,24298,5936,5170,-33,9,16
21582,21582,-2368,106,-945,77,24310,5656,5096,-15,19,9
22048,23090,-2670,109,-849,73,24300,5744,5142,11,21,8
23240,23362,-2702,-103,-763,-2,24284,5968,5228,18,20,-2
23630,22722,-1700,-275,-685,-14,24194,6140,5598,14,11,-5
22952,21954,-650,-320,-698,70,24258,6320,5250,-29,2,5
21814,20938,-722,-156,-809,130,24330,5784,5194,-52,-7,8
21990,21328,-1118,-11,-812,83,24354,5420,5036,-46,2,5
22704,22080,-838,30,-806,68,24230,5300,5016,16,18,10
23446,22282,-640,-70,-831,46,24128,5664,5454,65,11,-10
23488,21946,-90,-207,-858,26,24200,6646,5536,56,-11,-10
23100,21556,592,-243,-940,49,24366,6736,5204,-16,-27,8
22964,21062,510,-181,-1053,50,24420,5884,4976,-57,-22,-6
23016,21544,476,-81,-1123,6,24406,5288,4970,-28,-5,-14
23704,22658,328,-71,-1149,14,24544,5018,5360,38,7,-8
24352,22928,294,-181,-1124,52,24530,6042,5758,87,16,6
25050,22620,330,-287,-1088,113,24446,7030,5124,23,9,34
25178,22184,828,-313,-1052,213,24334,6332,5154,-37,5,2
24966,21534,1018,-240,-1001,326,24300,5842,5080,-31,11,-1
25006,20690,890,-74,-924,326,24360,6030,5238,-7,18,-1
25158,21002,1426,23,-862,175,24238,6346,5520,-6,20,-3
25498,21674,1732,-61,-851,54,24220,6218,5388,-55,-3,18
25556,21712,1850,-246,-840,32,24358,5958,5130,-63,-10,5
25394,21836,2354,-338,-867,-29,24474,5766,5098,-51,-7,0
25526,21748,2262,-366,-902,-43,24546,5772,5042,-29,19,9
25570,21712,2720,-306,-932,18,24366,5984,5252,-13,24,8
25768,21792,3254,-221,-996,93,24350,6330,5404,-20,19,5
26016,21932,3406,-134,-1086,179,24406,6254,5360,-41,1,11
26384,22220,3002,-93,-1137,234,24390,6058,5146,-63,-6,17
26636,22598,3260,-167,-1163,251,24504,5858,5062,-57,-12,15
26826,22096,3646,-311,-1215,269,24648,5964,5124,-37,3,4
27556,21060,3502,-355,-1253,180,24516,6092,5294,-43,20,10
28264,20826,3312,-331,-1228,142,24302,6220,5332,-37,17,18
28728,21008,3410,-309,-1174,137,24368,6482,5422,-55,2,-11
28982,21244,3390,-257,-1087,216,24430,6092,5124,-104,-7,-1
29182,21222,3536,-174,-1005,289,24448,5230,5086,-111,-8,19
29246,21290,4100,-108,-942,318,24458,5358,5030,-60,7,18
29150,21336,4738,-99,-904,240,24416,5822,5262,-37,13,22
29400,21546,4554,-186,-908,110,24316,6000,5288,-36,6,29
29432,21658,4774,-289,-907,95,24426,6048,5242,-36,0,28
29446,21444,5136,-352,-943,155,24646,5956,5356,-25,-5,18
29500,20972,5646,-279,-1030,245,24682,6352,5360,-33,-2,0
29998,20700,5828,-46,-1180,382,24570,6380,5360,-77,0,8
30580,21186,5266,51,-1208,332,24318,6044,5372,-100,2,11
31102,21900,4930,-65,-1220,195,24274,5950,5190,-105,-14,5
31638,21910,4684,-247,-1166,137,24392,5894,5170,-103,-37,-2
32058,21230,4786,-339,-1092,190,24598,5742,5286,-111,-43,-2
32204,20418,5022,-258,-1040,291,24682,5524,5048,-125,-29,12
32222,20198,5524,-78,-1017,331,24646,5198,5072,-113,-13,24
32326,20698,5844,15,-1013,236,24524,5556,5212,-47,6,23
32767,21440,5372,-67,-985,106,24710,5950,5170,-24,6,25
32767,21250,4594,-177,-895,78,24602,6524,5460,-30,19,4
32767,20610,4460,-221,-765,55,24358,6190,5390,-94,-4,-2
32767,20098,5058,-110,-627,105,24402,5342,5074,-135,-21,6
32767,21112,5834,134,-539,168,24536,5010,5128,-91,-31,22
32767,21552,5476,73,-472,78,24750,5194,5046,-48,-15,17
32767,21498,4972,-55,-400,41,24782,5802,5384,-2,5,27
32767,21452,6100,-150,-364,96,24618,6666,5472,-45,-6,4
32767,21070,6876,-133,-421,160,24606,6088,5338,-121,-27,-11
32767,20738,6962,-44,-570,130,24516,5388,5176,-149,-32,-5
32767,20962,6286,42,-629,105,24620,4926,4992,-119,-35,19
32767,21724,5584,28,-628,101,24820,5074,5034,-57,-29,13
32767,21690,5158,-108,-557,73,24866,5872,5338,-11,-2,3
32767,20458,4758,-189,-420,20,24662,6418,5460,-52,5,7
32767,19666,5458,-133,-290,-16,24474,5766,5354,-116,-13,12
32767,19988,6016,45,-220,-24,24648,5086,5072,-107,-38,4
32767,21012,5904,149,-186,-29,24942,5256,4944,-59,-22,-4
32767,22272,5588,43,-119,-41,24898,5204,5040,-38,-2,13
32767,22100,5714,-137,-66,-7,24730,5536,5374,2,16,12
32767,21086,6400,-227,-56,16,24602,6070,5456,-20,17,-4
32767,20536,6646,-162,-94,8,24626,5654,5202,-63,-2,7
32767,20578,6650,-40,-159,-10,24732,5008,5106,-71,-16,5
32767,21152,5886,55,-172,-7,24904,5138,5044,-18,3,9
32767,21524,5240,16,-134,35,24776,5952,5364,-5,22,21
32767,21194,6270,-110,-85,48,24664,5974,5306,-37,3,19
32767,20716,6800,-148,-124,10,24744,5664,5214,-71,-18,-6
32767,20488,6440,-86,-175,-7,24868,5542,5182,-66,-23,-7
32767,20706,5788,5,-176,-2,24766,5570,5182,-54,-21,-6
32767,21000,4774,50,-94,0,24924,5476,5118,-58,-16,-11
32767,20858,4924,29,60,-10,25040,5314,5184,-55,-7,-9
32767,20950,5842,-61,172,-79,24976,5156,5290,-44,14,2
32767,20746,6086,-97,210,-125,24666,5380,5218,-32,19,21
32767,20862,6626,-47,157,-71,24730,5344,5198,-22,9,20
32767,21318,6620,7,93,-28,24924,5444,5200,-3,10,18
32767,21528,6612,23,23,23,24928,5744,5320,2,25,17
32767,21322,6470,-18,-22,10,24746,5894,5328,-28,23,20
32767,21156,6550,-44,-77,-12,24676,5684,5316,-48,6,8
32767,21054,6458,-54,-122,-17,24790,5390,5116,-60,1,-5
32767,20768,5958,-28,-146,1,25094,5104,5092,-42,3,7
32767,20684,5270,-1,-98,8,25136,5450,5226,-13,44,16
32767,20956,5132,20,38,-11,24796,5720,5398,-27,49,29
32767,21230,6132,-15,91,-29,24634,5536,5298,-42,29,33
32767,21260,6680,-44,74,-15,24678,5500,5166,-38,13,6
32767,20836,6530,-50,-32,-19,24770,5476,5006,-24,6,-1
32767,21094,6036,15,-71,7,25114,5408,5136,-11,3,-8
32767,21464,6058,37,-65,40,25064,5588,5410,-27,31,-17
32767,21312,6112,-45,-62,8,24784,5058,5156,-40,43,35
32767,20804,6030,-108,-52,-24,24726,5196,5250,-5,42,18
32767,20444,5824,-88,-40,-33,24792,5586,5260,7,32,30
32767,20562,5948,5,-27,-2,24802,5874,5300,4,32,27
32767,20976,6050,81,-24,53,24732,5836,5248,-17,19,9
32767,21372,6072,55,-13,32,24944,5632,5272,-33,7,-5
32767,21380,6284,-92,-20,-53,24862,5546,5264,-50,18,1
32767,20960,6140,-133,-34,-58,24790,5316,5180,-44,17,13
32767,20700,5890,-55,-25,-21,24738,5394,5122,-36,17,-6
32767,20854,5944,39,-1,12,24836,5442,5160,-20,13,2
32767,21316,6098,42,14,15,24914,5330,5256,-8,34,18
32767,21282,6692,-25,-20,20,24848,5566,5336,-4,39,21
32767,20932,6564,-62,-80,1,24872,5652,5346,-22,27,21
32767,20758,6206,-65,-117,-34,24888,5570,5186,-31,34,23
32767,21026,5718,-16,-102,-22,24796,5548,5188,-23,31,20
32767,21104,5540,5,-52,4,24880,5750,5276,-14,21,-3
32767,21050,5604,0,1,16,24892,5760,5260,-45,27,-16
32767,20978,5804,-13,54,-3,24698,5458,5192,-63,29,9
32767,20960,6210,-65,73,-56,24672,5056,5092,-43,23,1
32767,20978,6722,-78,49,-72,24886,5194,5160,-7,27,14
32767,20890,6536,-60,-7,-56,24904,5762,5264,3,37,19
32767,21048,6156,5,-46,-53,24880,5802,5354,-20,34,10
32767,21496,5874,40,-49,20,24850,5516,5316,-33,27,2
32767,21392,6138,-12,-40,43,24816,5432,5232,-26,31,3
32767,21062,6150,-78,-33,-7,24754,5642,5258,-21,31,6
32767,20804,6042,-88,-26,-30,24772,5656,5258,-26,27,6
32767,20758,5960,-55,-7,-25,24870,5274,5176,-32,20,2
32767,20780,5958,-18,6,-13,24938,5442,5342,-15,29,1
32767,20854,6092,-2,14,-7,24728,5702,5368,-26,34,9
32767,21034,6050,-4,14,-21,24710,5552,5234,-49,18,12
32767,21336,6216,-11,5,-29,24738,5390,5162,-42,12,-1
32767,21472,6272,-41,-17,-12,24842,5324,5090,-23,14,1
32767,21330,6304,-74,-41,10,24928,5532,5186,-4,22,-2
32767,20810,6206,-73,-68,20,24924,5734,5182,-7,32,3
32767,20744,5922,-37,-71,5,24762,5388,5346,-37,40,10
32767,20788,5706,-21,-44,-8,24640,5314,5176,-20,34,15
32767,20884,5754,-15,7,-5,24618,5584,5220,-19,23,2
32767,20974,6224,-26,25,-6,24796,5552,5126,-22,15,8
32767,21114,6506,-17,-16,-20,25028,5510,5288,-12,20,6
32767,21098,6324,-21,-66,-5,24950,5826,5388,-20,38,0
32767,20956,6074,-23,-78,-1,24752,5654,5198,-42,34,12
32767,20982,5812,-10,-62,-3,24704,5442,5224,-49,27,0
32767,21146,5932,0,-36,-2,24810,5296,5202,-36,15,0
32767,21426,6088,-43,-21,-24,24844,5394,5110,-8,30,5
32767,21192,6248,-97,-13,-23,24736,5640,5240,-13,36,16
32767,20500,6062,-61,-31,10,24720,5544,5188,-23,29,16
32767,20412,6066,8,-33,3,24750,5536,5250,-27,26,15
32767,21070,6066,47,-37,-18,24788,5620,5284,-23,22,19
32767,21454,6186,-8,-37,-26,24808,5622,5220,-27,17,11
32767,21240,6186,-62,-43,-34,24928,5578,5272,-23,17,2
32767,21000,5990,-67,-47,-28,24798,5672,5240,-35,27,-1
32767,21002,5942,-16,-43,5,24744,5390,5224,-44,29,5
32767,21098,5834,5,-39,15,24608,5272,5118,-26,23,7
32767,21016,6114,-44,-23,-14,24748,5450,5304,-16,19,0
32767,20976,6192,-57,-25,-30,24776,5572,5212,-17,22,12
32767,20998,6046,-39,-22,-16,24864,5558,5328,-16,15,12
32767,20954,5912,-12,-11,4,25002,5612,5276,-21,28,7
32767,21016,6004,-27,15,-3,24982,5574,5194,-25,37,14
32767,20940,6112,-59,21,-26,24664,5614,5294,-25,43,3
32767,20926,6208,-83,16,-38,24674,5482,5146,-41,25,-1
32767,20912,6302,-79,-10,-39,24732,5274,5202,-31,19,5
32767,21020,6094,14,-37,-7,24822,5498,5162,-20,18,3
32767,21216,6124,29,-44,3,24822,5580,5308,-23,19,6
32767,21324,6170,-20,-48,7,24822,5460,5188,-33,22,4
32767,20982,6034,-83,-56,-14,24722,5474,5296,-22,26,7
32767,20658,6014,-75,-52,-38,24714,5658,5246,-23,21,3
32767,20778,5818,-14,-36,-23,24782,5504,5210,-27,15,5
32767,21078,5838,17,-11,-5,24906,5488,5290,-14,16,4
32767,21272,5848,3,13,4,24920,5742,5262,-22,26,-1
32767,21124,5972,-30,40,-8,24770,5552,5246,-43,31,5
32767,20868,6146,-60,36,-33,24668,5274,5302,-46,27,3
32767,20606,6334,-35,31,-33,24712,5370,5146,-25,20,-1
32767,20548,6100,13,17,-24,24872,5644,5296,-19,16,0
32767,21148,5802,60,22,-34,24840,5638,5192,-26,18,8
32767,21530,5770,-9,50,-43,24838,5348,5296,-31,22,5
32767,21312,6234,-86,59,-46,24872,5500,5258,-23,34,12
32767,21116,6536,-97,24,-24,24732,5554,5220,-28,35,14
32767,20900,6536,-50,-45,23,24660,5584,5196,-25,26,4
32767,20880,6290,-1,-94,35,24796,5518,5220,-22,17,1
32767,20924,5894,7,-100,16,24822,5612,5134,-25,19,1
32767,21060,5638,-26,-65,-11,24806,5564,5260,-28,17,5
32767,20930,5780,-61,-3,-28,24904,5500,5214,-27,22,1
32767,20808,6124,-68,10,-36,24860,5586,5184,-33,28,7
32767,20890,6340,-29,-6,-24,24708,5476,5182,-30,27,6
32767,21062,6250,-10,-32,4,24814,5474,5168,-25,23,5
32767,21182,6012,-16,-40,2,24876,5588,5184,-19,27,6
32767,21304,5960,-50,-28,-6,24760,5460,5342,-16,23,3
32767,21170,6094,-75,-15,-7,24696,5504,5318,-18,23,-8
32767,20984,6234,-71,-18,-7,24750,5452,5212,-18,17,-4
32767,20704,6176,-46,-50,24,24836,5482,5154,-21,16,-2
32767,20580,6106,-27,-67,15,24912,5538,5240,-11,21,1
32767,20732,5892,-5,-61,0,24844,5574,5246,-14,30,2
32767,21096,5924,-15,-43,-17,24802,5452,5256,-19,26,13
32767,21178,5972,-34,-16,-23,24744,5550,5244,-9,26,9
32767,21014,6122,-52,-15,-19,24774,5728,5320,-16,23,11
32767,20812,6280,-37,-25,-12,24894,5808,5206,-32,23,9
32767,20722,6072,-10,-45,0,24894,5590,5228,-41,24,2
32767,20948,5810,-6,-24,-4,24690,5438,5196,-41,24,-1
32767,20934,6144,-23,-17,-26,24696,5444,5204,-28,16,-2
32767,20984,6222,-9,-20,-20,24788,5474,5180,-23,19,5
32767,21016,6208,4,-36,-11,24952,5436,5276,-21,21,24
32767,21064,6022,7,-42,-11,24968,5664,5360,-22,36,26
32767,21004,5742,-2,-27,-2,24902,5720,5284,-33,44,31
32767,20912,5642,-12,22,-6,24600,5620,5240,-29,44,16
32767,20792,6134,5,71,-15,24612,5468,5264,-33,27,0
32767,20720,6438,77,65,-8,24706,5490,5204,-32,19,-2
32767,21244,6278,64,15,4,24832,5510,5260,-32,34,9
32767,21062,6192,-37,-4,-17,24852,5506,5200,-36,41,13
32767,21010,6050,-61,-28,-61,24616,5402,5238,-30,39,10
32767,21350,6120,-25,-47,-39,24562,5574,5186,-19,33,6
32767,21446,6040,-15,-75,27,24690,5668,5168,-21,17,0
32767,21308,5814,-57,-67,30,24808,5630,5278,-29,15,-4
32767,20706,5822,-113,-37,4,24924,5496,5236,-32,24,8
32767,20452,5904,-101,-14,-14,24972,5492,5270,-38,34,4
32767,20504,6018,-46,2,-30,24738,5568,5166,-33,36,10
32767,20952,6072,13,4,-23,24604,5414,5252,-29,24,3
32767,21444,6114,27,1,10,24736,5616,5230,-19,9,0
32767,21516,6304,-15,-20,18,24824,5524,5162,-27,6,-4
32767,21038,6540,-47,-80,21,24880,5524,5218,-28,15,1
32767,20694,6166,-28,-107,11,24758,5490,5198,-29,19,5
32767,21014,5528,8,-98,-3,24740,5432,5104,-18,16,7
32767,21204,5308,10,-26,20,24796,5446,5188,4,16,2
32767,21230,5420,-8,48,35,24940,5506,5176,2,13,1
32767,20968,5870,-39,106,21,25038,5616,5288,-13,24,9
32767,20686,6314,-59,109,14,24766,5574,5202,-29,40,26
32767,20584,6942,-57,38,-14,24664,5536,5260,-24,30,29
32767,21098,6142,5,-122,-50,24706,5692,5208,-21,28,21
32767,21460,5434,25,-114,-8,24750,5684,5220,-26,23,20
32767,21536,5544,-4,-62,20,24874,5664,5256,-30,26,17
32767,21314,5698,-51,0,23,24878,5590,5246,-44,34,12
32767,20954,5924,-89,31,11,24788,5392,5220,-51,40,22
32767,20758,6062,-88,46,-16,24666,5382,5218,-36,37,22
32767,21032,6416,-69,7,-21,24614,5330,5198,-28,29,23
32767,20948,6540,-64,-48,0,24648,5568,5200,-7,21,25
32767,20770,6432,-43,-102,0,24648,5662,5226,-5,9,20
32767,20718,6020,-5,-128,-14,24810,5706,5414,-6,11,16
32767,21062,5632,19,-109,-8,24794,5848,5250,-35,23,14
32767,21416,5404,-12,-57,-4,24618,5468,5256,-49,13,14
32767,21254,5558,-73,7,-5,24654,5314,5128,-34,11,10
32767,20954,6014,-84,37,-1,24690,5578,5146,-9,8,0
32767,20854,6594,-95,-1,-16,24708,5602,5208,-7,13,-1
32767,20580,6694,-88,-64,-23,24836,5490,5226,-17,10,-4
32767,20524,6182,-43,-114,-35,24872,5498,5354,-11,17,-4
32767,21030,5790,20,-123,-37,24878,5612,5390,-20,18,14
32767,21544,5568,34,-89,-4,24926,5556,5172,-26,19,19
32767,21576,5962,-28,-61,20,24994,5508,5204,-13,26,13
32767,21178,6428,-117,-78,8,25002,5676,5262,-4,38,18
32767,20670,6504,-142,-121,-10,24812,5814,5232,-20,44,19
32767,20698,6344,-111,-204,-23,24742,5636,5312,-35,41,13
32767,20822,6222,-66,-233,2,24616,5476,5264,-45,35,18
32767,20956,6048,-21,-258,34,24788,5432,5234,-39,28,23
32767,20866,5734,0,-238,55,24794,5524,5310,-23,33,17
32767,20950,5478,-3,-184,43,24710,5702,5256,-22,36,15
32767,20976,5692,-74,-116,3,24572,5590,5216,-32,36,10
32767,20788,6122,-115,-92,-3,24516,5562,5246,-40,24,3
32767,20510,6500,-70,-131,9,24670,5544,5172,-36,21,6
32767,20806,6538,-26,-189,5,24696,5530,5204,-27,22,10
32767,21084,6328,-24,-229,31,24786,5622,5202,-23,23,-6
32767,21074,6480,-38,-277,68,24850,5516,5248,-29,29,5
32767,20952,6506,-38,-330,61,24830,5492,5342,-34,35,4
32767,20958,6510,-34,-391,51,24730,5578,5224,-34,34,3
32767,21036,6302,-44,-432,55,24640,5540,5214,-36,27,-3
32767,20800,5974,-70,-443,45,24624,5680,5234,-25,23,-3
32767,20332,5516,-50,-393,62,24802,5596,5250,-25,18,-3
32767,20334,5412,20,-309,67,24954,5544,5352,-28,22,-5
32767,20780,5728,30,-236,52,24882,5588,5280,-44,38,11
32767,21224,6344,-18,-205,35,24628,5458,5264,-53,37,23
32767,21054,6704,-86,-220,20,24558,5410,5196,-37,16,17
32767,20940,6684,-97,-277,18,24814,5626,5200,-29,12,3
32767,20796,6594,-71,-338,37,24826,5696,5208,-36,16,10
32767,20714,6406,-10,-388,83,24764,5638,5194,-52,22,9
32767,20828,6156,21,-417,91,24690,5372,5174,-55,23,9
32767,21048,6414,-23,-438,52,24676,5240,5244,-36,28,14
32767,21040,6632,-61,-473,57,24634,5554,5222,-25,24,17
32767,20920,6796,-64,-537,95,24710,5530,5226,-32,16,16
32767,21014,6840,-64,-603,98,24684,5378,5128,-36,9,16
32767,20920,6442,-57,-671,108,24760,5506,5292,-13,9,9
32767,20634,6140,-60,-701,126,24662,5806,5202,-29,11,11
32767,20414,6072,-37,-701,103,24658,5690,5186,-44,2,12
32767,20766,6190,-14,-697,81,24780,5580,5308,-51,-1,5
32767,21122,6192,-24,-696,77,24844,5396,5156,-53,3,3
32767,21014,6228,-69,-717,85,24858,5282,5100,-45,9,0
32767,20602,6134,-76,-721,113,24868,5440,5132,-35,16,6
32767,20472,5970,-26,-714,128,24894,5416,5148,-25,22,15
32767,20740,5924,14,-709,130,24856,5490,5272,-23,38,20
32767,21018,5968,10,-695,108,24582,5608,5324,-24,27,32
32767,20962,6008,-60,-680,89,24566,5592,5248,-30,10,13
32767,20562,6238,-106,-691,105,24720,5530,5260,-39,-1,5
32767,20344,6254,-53,-701,109,24798,5438,5124,-29,-2,6
32767,20844,6302,10,-771,92,24856,5644,5332,-28,6,-4
32767,21012,6122,-13,-807,103,24936,5548,5332,-54,25,19
32767,20700,5684,-73,-829,124,24686,5302,5200,-53,29,29
32767,20140,5100,-64,-777,84,24638,5420,5318,-34,18,12
32767,20366,5510,-25,-735,53,24650,5668,5210,-38,4,1
32767,20774,6154,6,-740,75,24686,5468,5216,-45,-10,5
32767,20928,6186,-19,-780,97,24784,5548,5276,-47,-11,-9
32767,20902,5980,-55,-838,91,24898,5566,5206,-57,-6,-8
32767,20992,5756,-92,-862,71,24730,5422,5198,-66,-6,3
32767,20768,5206,-119,-852,68,24686,5280,5232,-56,-18,-5
32767,20380,5158,-115,-797,71,24912,5182,5232,-40,-26,-5
32767,20500,5372,-76,-787,103,25032,5428,5204,-34,-11,-4
32767,20632,5704,-70,-816,149,24846,5506,5190,-41,-8,7
32767,20746,5820,-125,-882,120,24808,5524,5292,-41,-9,7
32767,20496,5834,-170,-932,46,24916,5602,5268,-51,-12,-2
32767,20390,5362,-176,-1003,24,24934,5384,5202,-63,-19,-2
32767,20316,4912,-161,-1015,44,24958,5200,5224,-57,-18,2
32767,20018,4910,-173,-1010,0,24930,5506,5256,-43,-15,-6
32767,20188,5112,-148,-1028,4,24928,5474,5206,-49,-21,6
32767,20246,5204,-115,-1066,32,24984,5278,5238,-63,-23,7
32767,20324,4720,-112,-1100,2,25116,5218,5204,-49,-20,13
32767,20406,4304,-155,-1127,-25,24942,5514,5260,-38,-13,0
32767,20296,3992,-191,-1104,-5,24954,5450,5220,-55,-14,0
32767,19986,3686,-216,-1072,-11,25080,5118,5206,-62,-18,7
32767,19784,3442,-188,-969,-44,25136,5198,5270,-43,-3,9
32767,20144,4168,-184,-933,-82,24992,5356,5288,-34,-7,16
32767,20228,4202,-173,-959,-86,24864,5584,5290,-47,-21,2
32767,20124,3810,-169,-1001,-51,24970,5434,5270,-61,-29,4
32767,20170,3432,-144,-989,-14,24986,5352,5188,-66,-30,4
32767,20310,3364,-172,-998,-4,25070,5184,5172,-68,-35,12
32767,20224,3732,-217,-1038,-19,25206,5116,5184,-51,-28,14
32767,20178,3960,-237,-1137,-2,25230,5486,5250,-44,-18,6
32767,19886,3394,-245,-1203,-4,25096,5616,5424,-58,-22,10
32767,20064,2784,-268,-1245,-24,25030,5362,5158,-95,-26,16
32767,19978,2158,-275,-1234,-21,25134,5086,5192,-69,-34,11
32767,19820,1824,-301,-1205,-27,25090,5358,5152,-64,-31,-3
32767,19604,1650,-330,-1141,-67,25224,5106,5158,-87,-23,11
32767,19340,1718,-335,-1113,-70,25166,5028,5190,-69,-17,18
32767,19140,1890,-224,-1071,-30,25010,5212,5330,-49,-26,10
32767,19404,2180,-131,-1148,0,25102,5338,5162,-59,-35,-6
32767,20210,1942,-108,-1220,10,25282,5186,5242,-74,-41,-5
32767,20090,1178,-277,-1300,18,25456,5118,5186,-64,-20,3
32767,19632,722,-373,-1270,-15,25114,5244,5178,-63,-1,-1
32767,19096,320,-363,-1276,-10,25164,5130,5114,-56,-11,0
32767,18718,-164,-265,-1245,6,25312,5094,5386,-52,-13,-4
32767,18664,-1082,-120,-1143,25,25238,5044,5226,-60,-11,11
32767,19288,-1158,-45,-1023,68,25330,5054,5196,-60,-12,16
32767,19708,-1142,-108,-931,79,25330,5172,5220,-52,-9,12
32767,19040,-1000,-231,-862,49,25390,5360,5164,-54,-13,4
32767,18696,-686,-212,-902,-31,25472,5050,5268,-76,-5,12
32767,18836,-562,-134,-932,-41,25172,5216,5260,-82,-2,18
32767,19292,-780,-32,-967,23,25140,5152,5186,-95,-27,11
32767,19996,-1096,-44,-993,35,25256,5120,5212,-101,-30,-5
32767,20036,-1656,-152,-1005,50,25230,5126,5144,-93,-36,2
32767,19500,-2284,-218,-1008,107,25288,5128,5218,-89,-36,2
32767,18976,-2990,-212,-895,128,25468,4986,5220,-105,-33,4
32767,18470,-2736,-155,-739,91,25416,4790,5276,-98,-17,16
32767,18612,-1884,-98,-722,124,25390,4766,5074,-65,-5,26
32767,19000,-2092,-49,-800,131,25522,5078,5384,-45,-7,17
32767,18744,-3224,-90,-823,116,25292,5286,5212,-72,-19,17
32767,18228,-4042,-55,-711,117,25172,5136,5326,-89,-36,5
32767,18272,-4232,-3,-544,79,25278,4910,5094,-107,-51,-3
32767,18974,-3160,-107,-391,6,25502,4824,5220,-102,-64,0
32767,18068,-2274,-84,-464,8,25394,4720,5262,-109,-53,-1
32767,18488,-2456,65,-579,40,25538,4610,4982,-94,-44,8
32767,19320,-3124,120,-662,34,25742,4628,5116,-65,-38,7
32767,19432,-4020,58,-676,53,25750,4858,5138,-49,-17,6
32767,19322,-4448,-25,-597,70,25790,4804,5372,-42,-1,14
32767,18610,-4430,-43,-532,96,25798,4964,5210,-56,18,26
32767,18724,-4008,-29,-498,96,25552,4728,5248,-68,10,51
32767,18382,-4012,-51,-512,87,25442,4884,5158,-35,-2,32
32767,18084,-4316,-9,-548,97,25394,5212,5310,-40,-13,11
32767,18294,-4850,15,-546,37,25506,5058,5192,-85,-23,12
32767,18414,-5442,23,-477,-6,25560,4754,5252,-96,-20,19
32767,18376,-5116,60,-378,22,25492,4868,5096,-94,-24,20
32767,18452,-4302,138,-382,54,25782,4452,5206,-98,-4,21
32767,18888,-4192,185,-437,44,25760,4412,5158,-89,-2,46
32767,19222,-4826,92,-523,51,25554,4666,5236,-62,-4,43
32767,18980,-5408,54,-509,79,25442,4930,5104,-67,-10,15
32767,18704,-5692,60,-439,87,25510,4682,5038,-69,-17,4
32767,18608,-6014,57,-391,110,25754,4522,4986,-58,0,3
32767,18450,-5572,32,-335,114,25842,4468,5170,-40,12,27
32767,18056,-5230,41,-322,101,25640,4684,5136,-36,17,41
32767,18182,-5062,78,-379,75,25778,4500,5360,-21,-1,39
32767,18708,-5924,64,-410,8,25416,5088,5324,-9,-7,35
32767,18744,-6570,-7,-347,21,25410,5216,5186,-45,-28,13
32767,18054,-6000,-52,-279,24,25532,4874,4990,-88,-39,-9
32767,17562,-4598,89,-346,58,25800,4376,5038,-97,-39,6
32767,18292,-4912,295,-506,42,25858,4482,5240,-62,-16,23
32767,19398,-6472,291,-573,20,25802,4480,5326,-66,-13,31
32767,19560,-7744,122,-431,29,25702,4382,5266,-67,-17,17
32767,18902,-7118,-69,-266,40,25824,4626,5116,-50,-13,9
32767,18082,-6414,-31,-210,73,25822,4672,5042,-55,-11,15
32767,18084,-6646,-23,-209,32,25794,4376,5044,-54,10,11
32767,18074,-7276,-28,-175,-18,25890,4176,5048,-27,12,24
32767,17794,-7546,-57,-76,-106,25674,4676,5274,11,5,37
32767,18150,-6176,2,-23,-120,25498,5064,5218,-15,-7,36
32767,18786,-5704,61,-108,-80,25504,4956,5164,-53,-29,9
32767,18992,-6052,46,-192,-55,25818,4662,5216,-74,-33,1
32767,19120,-6794,20,-208,-46,25858,4352,5116,-71,-16,9
32767,19088,-7292,-61,-139,-24,25860,4432,5084,-58,-10,13
32767,18658,-7628,-72,-22,-17,25858,4450,5230,-43,-9,11
32767,18324,-6632,-63,58,-12,25800,4540,5258,-39,-10,12
32767,18214,-4906,35,-38,54,25722,4716,5204,-43,-19,0
32767,18690,-5228,120,-233,71,25706,4578,5012,-53,-26,-6
32767,18946,-6772,113,-331,54,25932,4404,4868,-51,-25,-17
32767,18934,-7950,20,-251,26,26162,4154,5088,-37,-4,0
32767,18750,-8056,-72,-83,3,25794,4474,5422,3,-8,40
32767,18028,-7540,-160,113,-41,25408,5020,5414,-1,-43,17
32767,17564,-5664,-116,148,-72,25742,5016,4844,-45,-64,-26
32767,18286,-4522,73,-78,-23,26298,4374,4778,-71,-43,-28
32767,19136,-5956,129,-265,-28,26266,4038,5126,-31,-16,5
32767,19294,-7362,29,-266,-48,25770,4638,5238,-3,-7,18
32767,18864,-8050,-26,-160,-33,25930,4832,5146,-31,-23,-5
32767,18766,-7758,-15,-39,1,26234,4568,5014,-61,-20,-43
32767,18782,-7072,-76,46,20,26406,4172,4952,-51,13,-21
32767,18242,-6316,-96,36,24,26096,4062,5342,2,36,19
32767,18142,-6104,-55,-47,-13,25608,4742,5304,29,19,28
32767,18384,-6604,-6,-116,-40,25740,5024,5106,-9,-12,3
32767,18722,-7166,20,-91,-49,26088,4690,5070,-31,-8,-21
32767,18780,-7200,-6,-37,-43,26018,4562,5104,-37,3,-8
32767,18942,-6918,-7,-11,-21,25942,4580,4998,-37,13,5
32767,18748,-6414,-75,-11,-15,26566,4118,5016,-31,38,11
32767,18388,-6704,-22,-63,-30,26226,4246,5440,0,38,35
32767,18910,-7474,34,-10,-26,25458,5112,5226,7,-1,35
32767,18954,-6898,-18,54,-6,25820,5094,4902,-45,-21,-18
32767,18602,-6106,-72,7,23,26354,4434,4888,-61,-1,-31
32767,18482,-6216,-24,-65,7,26264,4242,5132,-41,27,-15
32767,18990,-6900,-9,-97,-18,25970,4346,5140,-36,30,5
32767,18574,-7276,-40,-64,-4,26300,3986,5230,-22,34,22
32767,18516,-7244,-15,0,5,25906,4472,5516,17,20,23
32767,18408,-6544,-27,19,30,25354,5296,5276,16,-23,23
32767,18166,-6262,-11,-17,-2,26244,4744,4728,-66,-31,-45
32767,18510,-6178,21,-87,-33,26510,4146,5042,-60,0,-15
32767,18926,-6946,65,-110,-41,26266,4382,5274,-17,30,23
32767,19330,-6904,-34,-75,-19,26138,4624,5170,-22,38,9
32767,18790,-7146,-73,-38,29,26196,4514,5210,-25,32,2
32767,18374,-7124,-67,12,6,25968,4538,5118,-20,29,5
32767,18484,-6566,-36,26,-19,25806,4532,5074,-25,16,10
32767,18578,-6062,-13,-15,-10,25860,4526,4960,-27,7,-4
32767,18904,-6458,-11,-127,29,26166,4538,5168,-17,18,-1
32767,18674,-7326,-3,-125,37,26150,4688,5268,-16,29,6
32767,18456,-7616,-8,-46,-3,25898,4630,5222,-30,19,11
32767,18500,-7462,1,46,-31,26046,4464,5058,-35,11,1
32767,18582,-6046,-53,94,-33,26150,4558,5014,-25,17,-6
32767,18532,-5808,-30,-27,-17,26364,4528,5066,-23,27,11
32767,18778,-6326,27,-126,13,26338,4406,5298,-20,43,9
32767,18962,-7278,18,-121,6,25850,4782,5286,-14,32,19
32767,18698,-7754,-11,-41,-8,25844,4758,5090,-51,5,-8
32767,18584,-7458,-13,71,-10,26140,4410,4938,-54,1,-16
32767,18842,-6194,-45,104,-2,26252,4328,5034,-35,21,9
32767,18676,-5762,-67,-1,28,26460,4294,5162,-21,37,12
32767,18278,-6642,-38,-85,-4,26086,4542,5420,-11,46,16
32767,18598,-7186,12,-48,-39,25904,4646,5254,-19,32,25
32767,18786,-7044,-13,23,-46,25900,4710,5070,-23,17,-2
32767,18688,-6670,-36,54,-31,26114,4688,5018,-24,10,0
32767,18638,-5948,-37,19,-11,26122,4392,5056,-29,19,5
32767,18680,-5894,7,-64,-5,26042,4738,5132,-23,24,12
32767,18918,-6522,42,-124,11,26106,4692,5192,-43,22,7
32767,19026,-7302,33,-107,43,26180,4156,5176,-45,24,7
32767,18496,-7122,-24,-39,63,26048,4372,5248,-9,21,22
32767,18210,-6540,6,-10,39,25960,4750,5160,-10,15,14
32767,18766,-6258,40,-32,10,25964,4874,4980,-23,7,-2
32767,18752,-6178,8,-72,22,26132,4664,5046,-39,17,-12
32767,18714,-6534,26,-119,25,26114,4308,5114,-41,29,1
32767,18910,-7344,12,-93,25,26216,4242,5134,-17,34,15
32767,18758,-7288,-55,-10,16,26170,4484,5322,-10,34,24
32767,18400,-6706,-92,34,21,25940,4776,5246,-11,30,26
32767,18216,-6144,-42,-14,-9,25930,4902,4990,-20,18,10
32767,18402,-6304,-1,-80,-36,26220,4658,4932,-44,24,-14
32767,18804,-6738,18,-94,-16,26180,4388,5124,-40,35,3
32767,18832,-7138,-23,-74,-11,26234,4274,5154,-20,47,20
32767,18390,-7054,-69,-28,-8,26042,4772,5344,-9,53,12
32767,18268,-7080,-45,23,-51,25752,4718,4992,-40,22,11
32767,18668,-6474,-11,47,-70,26022,4500,4918,-40,15,-21
32767,18940,-6252,1,15,-8,26236,4362,5060,-33,26,-6
32767,18750,-6654,-29,-36,26,26146,4374,5228,-16,34,23
32767,18562,-6752,-32,-29,8,26036,4612,5322,-20,33,17
32767,18692,-6452,-18,-32,5,26034,4636,5258,-28,25,18
32767,18768,-6604,-10,-48,-8,25878,4520,5088,-25,15,8
32767,18824,-6630,-45,-60,-10,26164,4582,4988,-13,12,-1
32767,18420,-6930,-43,-48,8,26330,4632,5156,-19,40,11
32767,18336,-7070,6,0,12,25976,4660,5240,-26,50,26
32767,18700,-6250,-10,23,22,25862,4618,5236,-40,38,8
32767,18554,-5868,-28,-59,34,26034,4424,5176,-37,27,-1
32767,18718,-6250,-10,-114,8,25938,4540,5056,-19,27,12
32767,18968,-6878,5,-119,5,25968,4702,4992,-17,23,18
32767,18816,-7464,-52,-56,20,26188,4616,5086,-36,26,0
32767,17882,-6654,-74,99,-34,26332,4386,5198,-31,37,8
32767,18216,-5558,-14,78,-58,26016,4648,5268,-18,36,18
32767,18836,-5638,55,-56,-33,25792,4620,5180,-42,18,4
32767,19206,-6284,28,-138,-2,25998,4448,5110,-31,12,4
32767,18924,-7318,-29,-116,12,26202,4590,5038,-23,21,-1
32767,18508,-7384,-50,-21,5,26048,4590,5100,-29,29,0
32767,18522,-6740,-32,30,5,25980,4512,5144,-31,31,4
32767,18584,-6322,-44,32,5,26158,4334,5040,-34,38,5
32767,18300,-6326,-53,-20,-4,26172,4218,5262,2,47,24
32767,18480,-6106,0,-62,-5,25842,4960,5222,20,40,31
32767,18834,-6572,28,-71,10,26106,5020,5124,-27,32,9
32767,18758,-6952,-18,-47,21,26192,4632,5216,-49,36,-1
32767,18436,-7018,-40,3,2,25814,4662,5142,-47,34,15
32767,18640,-6474,-16,49,-10,25862,4538,5056,-63,24,-1
32767,18874,-5810,-6,7,28,26242,4206,4974,-57,37,-3
32767,18638,-6008,-26,-58,43,26182,4200,5108,-26,54,26
32767,18294,-6644,-17,-107,40,26010,4420,5154,-3,56,36
32767,18220,-7158,1,-61,-10,25866,4626,5392,-3,46,30
32767,18506,-6986,-2,23,-39,25724,4890,5084,-30,14,13
32767,18526,-6340,-40,46,-29,25978,4698,4982,-52,8,-12
32767,18548,-5534,-41,4,-6,26150,4404,4990,-49,25,-14
32767,18562,-5976,-7,-92,5,26026,4368,5102,-40,43,8
32767,18750,-6672,2,-113,0,25952,4454,5128,-27,47,12
32767,18722,-7338,-28,-39,0,26250,4318,5264,-22,48,18
32767,18574,-6668,-76,29,3,25936,4456,5268,-1,43,34
32767,18432,-5676,-70,3,13,25624,4946,5102,1,23,21
32767,18360,-6096,2,-65,10,25934,4830,4968,-47,19,-18
32767,18674,-6498,18,-85,-2,26286,4338,5130,-52,35,6
32767,18884,-7098,-2,-60,4,25986,4422,5196,-32,56,24
32767,18614,-6848,-83,-9,24,25756,4502,5240,-30,43,16
32767,18038,-6490,-107,32,-1,26102,4434,5110,-29,37,6
32767,17898,-5596,-34,-31,-46,25928,4544,5138,-20,47,15
32767,18642,-6010,69,-109,-43,25814,4522,5122,-18,48,29
32767,19290,-6636,44,-120,-23,25930,4648,5210,-17,47,12
32767,18996,-6942,-62,-93,20,25996,4676,5142,-23,45,19
32767,18226,-7050,-84,-16,10,25976,4422,5158,-25,47,19
32767,18250,-6662,-40,39,-30,25688,4568,5352,-19,45,22
32767,18534,-5640,-16,32,-22,25702,4732,5164,-25,26,27
32767,18630,-5716,0,-72,-7,25822,4762,5072,-45,20,-8
32767,18814,-6548,-4,-127,21,25896,4560,5020,-56,23,-8
32767,18726,-6884,-45,-107,20,26044,4168,5044,-47,37,-2
32767,18202,-7116,-67,-44,6,25918,4150,5278,-17,44,13
32767,18056,-6838,-36,14,-40,25752,4598,5342,0,35,24
32767,18462,-6238,0,27,-57,25626,4924,5096,-9,18,15
32767,18732,-6264,7,7,-46,26014,4756,4986,-38,16,-5
32767,18812,-6276,-29,-10,-20,26162,4404,5134,-40,31,-7
32767,18714,-6344,-46,-41,3,25996,4344,5140,-19,48,17
32767,18632,-6358,-62,-80,5,25760,4562,5286,-14,43,24
32767,18516,-6934,-35,-61,5,25512,4796,5220,-24,27,20
32767,18448,-7390,-37,25,-16,25834,4604,5076,-42,12,4
32767,18202,-7338,-56,146,-39,26144,4326,5108,-32,20,-6
32767,18278,-5646,-62,180,-30,25938,4460,5188,-13,37,8
32767,18584,-5576,-21,91,-37,25826,4604,5186,-18,30,19
32767,18604,-6332,-60,23,-65,25960,4402,5256,-29,25,10
32767,18514,-7346,-71,125,-100,25820,4538,5194,-17,13,22
32767,18516,-7338,-76,314,-147,25762,4648,5048,-16,5,15
32767,18752,-5202,-95,360,-119,25924,4666,5048,-27,7,-4
32767,18634,-4718,-30,220,-36,25884,4760,5044,-30,24,8
32767,18810,-5120,-20,81,-50,25948,4512,5110,-49,32,13
32767,18960,-6180,-7,58,-67,25940,4232,5368,-32,32,23
32767,18792,-7276,-25,177,-62,25608,4572,5228,-9,13,23
32767,18892,-5192,-80,249,-42,25750,4766,5010,-10,-2,0
32767,18608,-4494,-66,99,-1,26102,4686,5070,-23,8,-15
32767,18644,-5484,-17,-33,-47,25950,4520,5110,-28,27,9
32767,18954,-5960,13,-18,-41,25852,4388,5110,-34,30,12
32767,19206,-5562,-27,17,-14,25990,4376,5206,-25,30,4
32767,18796,-5432,-94,-5,9,25980,4556,5184,-12,33,18
32767,18420,-4968,-88,-65,9,26008,4634,5176,-13,30,12
32767,18514,-5458,-3,-118,-12,25976,4746,5264,-18,27,11
32767,18586,-6130,20,-102,-47,25744,4690,5214,-37,22,8
32767,18884,-6380,22,-36,-40,25762,4586,4974,-47,24,-1
32767,18872,-5954,-69,-1,-5,25992,4454,4982,-45,41,-9
32767,18338,-5776,-90,31,-15,26000,4264,4962,-36,48,5
32767,18168,-5438,-60,29,-50,26088,4076,5342,-8,61,17
32767,18876,-5044,5,-32,-84,25738,4746,5296,19,64,25
32767,19260,-5296,8,-103,-61,25560,4924,5112,-28,42,-5
32767,19288,-5954,-24,-122,-4,25732,4608,5044,-40,33,-28
32767,18854,-6222,-50,-61,-4,25954,4534,4678,-28,47,-18
32767,18916,-5424,-40,-74,12,26414,3930,5300,-18,73,11
32767,18994,-5350,28,-114,58,25726,4554,5426,24,88,35
32767,18914,-6064,6,-117,49,25170,5210,5254,2,53,26
32767,18636,-6524,-9,-42,31,25264,4990,5052,-48,21,-24
32767,18602,-6292,-67,108,16,26184,4316,4768,-54,24,-38
32767,18314,-4584,-139,68,11,26304,4214,5434,6,78,25
32767,17920,-4314,-71,-96,13,25388,4864,5416,12,74,40
32767,18370,-4970,50,-232,-19,25072,4978,5150,-29,36,-9
32767,19174,-6506,112,-220,-45,25424,4548,5038,-42,4,-28
32767,19374,-7310,59,-68,-31,25950,4446,4966,-22,15,-10
32767,19176,-6618,-42,88,5,26044,4550,5310,-18,27,9
32767,18718,-4902,-102,114,10,25726,4728,5224,-10,32,19
32767,18524,-4486,-35,-60,5,25640,4680,5294,-29,15,-2
32767,18806,-5274,-1,-155,-2,25616,4730,5136,-46,-3,-13
32767,18880,-6288,2,-178,4,25906,4462,4824,-55,-4,-18
32767,18740,-6830,-27,-82,15,26238,4126,5110,-37,8,-12
32767,18606,-6404,-64,41,2,25946,4454,5290,-7,30,4
32767,18414,-5330,-94,40,-15,25600,4734,5300,-11,25,13
32767,18248,-5018,-28,-4,-39,25758,4646,5108,-18,12,-12
32767,18886,-5336,41,-55,-52,25948,4480,5252,-20,13,-1
32767,19290,-6068,3,-80,6,25732,4546,5236,-14,12,25
32767,18866,-6428,-71,-17,12,25712,4898,5130,-11,6,8
32767,18758,-5816,-76,59,24,26146,4704,5326,-44,14,-2
32767,18736,-5312,-49,56,14,25788,4434,5354,-44,29,30
32767,18664,-5042,-51,18,-18,25540,4692,5254,-36,14,26
32767,18754,-4972,-35,-70,11,25680,4718,5014,-60,0,-18
32767,18810,-5556,0,-119,31,26068,4382,4932,-59,6,-14
32767,18562,-6458,-8,-76,11,26362,4060,5172,-35,33,9
32767,18652,-5870,-56,24,-10,26142,4272,5516,-4,65,33
32767,18500,-5378,-56,52,-26,25478,4580,5366,7,50,56
32767,18650,-4936,-44,5,-15,25292,4952,5060,-11,8,-2
32767,18816,-4926,-18,-73,10,25666,4714,4972,-32,-1,-19
32767,18752,-5554,-11,-137,12,26038,4384,4970,-27,18,2
32767,18852,-6372,-10,-62,-6,26040,4588,5304,-3,44,19
32767,18778,-6242,-34,33,-11,25740,4726,5462,-19,38,35
32767,18542,-5308,-77,78,-3,25510,4780,5226,-29,23,19
32767,18136,-4676,-65,7,-1,25872,4622,5138,-45,5,-5
32767,18390,-4900,-10,-116,-23,25996,4584,5032,-34,20,-1
32767,18706,-5762,12,-147,-48,25782,4542,4980,-22,34,5
32767,19032,-6258,15,-85,-39,25978,4508,5290,-26,41,-6
32767,18996,-6142,-41,-22,-6,25758,4606,5306,-29,47,15
32767,18572,-5832,-63,21,-1,25530,4572,5152,-26,37,20
32767,18478,-5418,-32,19,-18,25854,4464,5072,-24,27,3
32767,18798,-4986,-19,-76,-8,25934,4606,5144,-10,37,12
32767,18786,-5528,-2,-140,-8,25780,4818,5080,-8,44,18
32767,18966,-6120,14,-137,-4,25794,4772,5210,-18,42,0
32767,19028,-6390,-9,-57,14,25604,4796,5152,-35,39,2
32767,18772,-6008,-54,13,23,25660,4382,5258,-58,26,5
32767,18220,-5250,-39,24,2,25606,4434,5162,-34,22,6
32767,18490,-4980,-1,-45,-4,25700,4818,5104,-26,16,-5
32767,18844,-5126,-4,-100,3,25834,4666,4948,-44,26,-11
32767,18848,-5660,-31,-122,16,25882,4248,5162,-44,38,0
32767,18626,-6204,-63,-86,2,25608,4356,5226,-15,35,12
32767,18498,-5924,-92,-15,-37,25728,4628,5218,-11,31,6
32767,18336,-5330,-65,3,-54,25804,4786,5240,-14,23,11
32767,18530,-5204,-8,-54,-69,25590,4812,5144,-26,20,4
32767,18652,-5910,1,-90,-77,25696,4692,5046,-45,9,-21
32767,19088,-6122,-5,-68,-61,25804,4506,5112,-49,12,-23
32767,19284,-6264,-24,-12,-10,25882,4414,5206,-42,23,-7
32767,19312,-5798,-51,26,38,25974,4370,5278,-32,32,8
32767,19004,-5528,-45,14,77,25784,4530,5380,-29,32,9
32767,18572,-5476,-24,-8,88,25476,4616,5142,-27,19,8
32767,18456,-5412,-4,-23,49,25762,4428,4968,-22,4,-17
32767,18448,-5092,-20,-23,9,26024,4506,5128,-6,20,-11
32767,18420,-4932,-29,-50,-6,25810,4750,5276,-11,33,19
32767,18350,-5014,-46,-88,8,25868,4644,5138,-17,36,23
32767,18036,-5712,-32,-85,-19,25990,4606,5286,-24,35,16
32767,18212,-6048,14,-33,-65,25712,4674,5294,-20,25,26
32767,18746,-5684,34,12,-75,25574,4744,5118,-29,14,9
32767,19038,-5314,-6,-34,-68,25824,4616,4966,-35,12,-6
32767,19148,-5540,-41,-67,-46,25926,4480,5114,-38,28,14
32767,18888,-6236,-47,-47,-50,25658,4520,5222,-38,41,33
32767,18842,-6326,-43,40,-65,25790,4424,5180,-36,29,22
32767,18886,-5208,-42,70,-42,25850,4482,5196,-18,36,27
32767,18846,-4946,-19,30,-18,25574,4640,5244,-12,30,34
32767,18922,-5048,-13,-27,-7,25494,4832,5142,-14,16,-1
32767,18902,-5506,-2,-41,16,25762,4958,5122,-27,1,-32
32767,18854,-5720,-14,-22,28,25866,4698,5090,-41,6,-40
32767,18772,-5570,-35,3,18,25762,4422,5212,-43,14,-33
32767,18512,-5636,-32,11,-21,25696,4356,5134,-30,2,-34
32767,18736,-5356,-5,3,-8,26030,4368,5066,-17,0,-28
32767,18968,-5624,26,-2,4,26136,4396,5084,-13,8,14
32767,19034,-5750,-22,20,3,25776,4646,5132,-2,25,62
32767,18832,-5892,-34,68,20,25704,4768,5210,-15,18,68
32767,18894,-5702,-55,117,27,25928,4812,5252,-36,8,58
32767,18706,-4952,-77,141,41,26000,4952,5206,-36,12,38
32767,18366,-5116,-68,83,38,25744,4848,5264,-55,18,10
32767,18318,-5742,-48,105,2,25408,4224,5202,-66,22,11
32767,18410,-6074,-35,203,-38,25384,3926,5058,-38,25,8
32767,18410,-5234,-60,302,-63,25432,4078,5002,7,20,15
32767,18408,-4616,-58,268,-77,25512,4472,5066,40,16,41
32767,18478,-4626,-22,219,-83,25728,4562,5062,48,4,48
32767,18752,-5450,25,241,-82,26216,4580,5182,54,9,39
32767,19016,-5686,-4,320,-96,26128,4954,5406,50,16,51
32767,18838,-4296,-19,379,-98,25688,5358,5246,15,13,43
32767,19190,-4094,-27,271,-45,25804,5138,5108,-51,7,-9
32767,18984,-4566,-85,232,-46,25884,4584,4984,-58,14,-12
32767,18620,-5482,-103,282,-49,25902,4294,5230,-37,36,6
32767,19104,-4650,-96,377,-30,25552,4492,5238,-23,36,21
32767,18810,-4362,-143,441,-39,25576,4636,5140,-25,27,17
32767,18210,-3988,-140,454,-87,25740,4616,5072,-20,33,11
32767,17984,-4440,-29,478,-139,25732,4642,5120,-5,41,21
32767,18664,-5544,96,628,-185,25814,4758,5238,-7,45,7
32767,19380,-3864,1,828,-174,25976,4772,5198,-30,44,5
32767,19550,-968,-94,609,-91,25914,4574,5136,-35,55,12
32767,19052,-1122,-75,317,-55,25756,4706,5166,-25,61,16
32767,18926,-2718,-1,110,-84,25772,4708,5190,-41,64,3
32767,19118,-4204,139,154,-114,25822,4592,5044,-36,70,4
32767,19516,-6248,158,373,-97,25770,4604,5134,-20,81,12
32767,20002,-7028,-40,921,-43,25750,4586,5256,-15,83,18
32767,18906,-2980,-392,1321,-38,25552,4708,5260,-24,75,10
32767,16366,-1424,-131,1226,-199,25446,4754,5158,-29,65,0
32767,17664,-2070,268,1200,-199,25738,4604,4964,-24,62,-14
32767,19666,-2710,314,1198,-230,25952,4436,5100,-14,79,-7
32767,20928,-1738,-76,1539,-261,25770,4532,5334,-6,89,11
32767,19620,550,-273,1499,-253,25382,4770,5220,-15,80,13
32767,17082,1682,-72,1223,-309,25398,5016,5088,-11,58,-13
32767,18374,550,569,1029,-201,25662,4876,5058,-31,54,-39
32767,22348,1120,649,989,57,26064,4418,5098,-43,73,-11
32767,24076,3048,120,666,110,26022,4296,5424,-26,104,12
32767,21450,2784,-548,319,-8,25334,4698,5136,-11,104,14
32767,18190,1720,-636,75,-53,25260,4766,4958,2,91,-10
32767,17414,-458,19,96,5,25502,4762,5240,-8,93,-21
32767,19114,-1050,260,249,-11,25468,4774,5260,-14,92,0
32767,20376,-626,147,465,-46,25336,4606,5182,-31,81,7
32767,19780,106,-138,572,-57,25208,4566,5046,-24,66,-9
32767,18410,358,-200,644,-109,25366,4596,4956,7,84,-22
32767,17772,-170,26,739,-155,25878,4430,4836,11,97,-6
32767,18552,-1142,211,969,-166,26000,4386,5710,43,140,56
32767,20016,112,245,1184,-131,25148,5334,5420,30,131,48
32767,20650,2156,8,1219,-124,24502,5658,5312,-18,75,-9
32767,19826,3404,-126,1058,-148,24622,5114,4916,-65,21,-43
32767,19512,3788,-22,850,-113,25332,4448,4716,-57,10,-64
32767,19950,2876,181,693,-50,25694,4144,5144,-14,75,-60
32767,20966,2448,220,633,14,25566,4616,5302,14,109,-9
32767,20858,2080,104,657,24,25296,4478,5152,-18,122,40
32767,19964,2044,-1,737,8,25248,4264,4860,31,98,19
32767,19552,1734,42,831,33,25422,4700,5106,93,95,-20
32767,19652,916,73,1120,47,25540,5154,5128,117,124,-25
32767,20100,1848,-111,1316,-42,25448,5082,5580,57,135,13
32767,19362,3620,-218,1346,-133,25202,5452,5418,43,153,26
32767,18770,4964,-174,1241,-121,24964,4710,5366,-38,141,29
32767,18524,4824,90,1048,-95,25044,4406,4804,17,113,22
32767,19412,2694,356,1079,-117,25522,5026,5440,73,127,-16
32767,21092,3436,265,1143,-87,25048,5700,5598,-21,159,36
32767,20774,4858,-13,1200,-194,24298,5208,5348,-72,111,56
32767,19632,5406,-153,1069,-272,24030,4934,5232,-70,39,-13
32767,19272,5196,114,954,-148,24572,4966,4968,-45,-11,-57
32767,20160,4672,391,917,26,25206,4748,5296,-51,4,-49
32767,21360,4612,431,888,86,25332,4598,5096,-40,64,-4
32767,22156,4578,211,896,74,25006,4456,5238,-27,80,16
32767,21434,4652,-133,927,-1,24684,4648,5276,-7,78,2
32767,20006,4806,-273,956,-99,24786,4976,4992,9,49,-14
32767,18820,4724,-106,982,-130,25446,4590,5020,29,49,-38
32767,19228,4424,186,1038,-38,25576,4740,5468,50,108,-11
32767,20068,4404,305,1117,-5,25350,5180,5188,46,156,24
32767,20664,5434,223,1165,-83,24870,5120,5468,18,153,24
32767,20734,6022,82,1159,-173,24364,5236,5230,10,137,6
32767,20304,5418,82,1137,-183,24380,5224,5304,0,84,-5
32767,20590,5720,217,1108,-105,24722,5280,5254,-5,63,-18
32767,21432,6922,261,999,-37,24746,5250,5230,-34,73,-23
32767,21376,6492,72,798,-28,24490,4828,5274,-58,63,-8
32767,20858,5960,-28,746,-78,24554,4704,4942,-36,53,-24
32767,20730,5972,15,713,-50,24944,4870,5176,11,46,-47
32767,20926,6938,90,621,21,25360,5030,5228,4,86,-42
32767,20950,6852,138,520,56,25340,4686,5388,-24,137,21
32767,20948,6254,102,436,30,24816,4606,5226,-8,154,60
32767,20838,5292,50,457,-25,24232,5014,5186,22,128,6
32767,20826,5340,-12,532,-72,24234,5236,4962,47,84,-32
32767,20526,5046,-1,695,-117,24850,5432,5562,49,88,-45
32767,20270,4956,65,821,-100,24668,5440,5084,-14,127,10
32767,20540,5474,165,899,-59,24478,4456,5260,-44,112,43
32767,20868,6054,202,939,-29,24112,4534,5064,8,113,20
32767,21076,6266,163,940,-61,24358,5352,5280,48,71,-24
32767,21426,6050,7,925,-210,24744,5562,5428,22,61,-34
32767,21580,7214,10,852,-132,24752,5530,5356,-7,83,-4
32767,21576,8678,21,642,-7,24528,5264,5374,-34,87,7
32767,21648,8360,30,328,39,24438,5018,5088,-38,82,-19
32767,21272,7116,29,99,14,24332,4646,5076,-30,72,-17
32767,21622,6934,24,-48,-22,24432,4790,5054,21,75,-8
32767,21470,6212,-26,-106,-18,24568,5200,5258,25,83,-23
32767,20916,5726,-72,-96,-16,24520,5418,5370,4,95,-1
32767,20676,5442,-30,-36,-19,24216,5042,5284,-19,94,18
32767,20840,5530,4,37,-36,24168,4834,5006,2,79,2
32767,21086,5432,6,129,-66,24458,5170,5256,37,76,-18
32767,21336,6206,-53,161,-85,24596,5464,5328,-4,96,-3
32767,21510,6814,-97,137,-82,24340,5274,5256,-31,103,11
32767,21294,6992,-96,44,-52,24058,4998,5116,-28,96,10
32767,21074,6896,-22,-47,-14,24194,4894,5248,-3,84,4
32767,21294,6382,62,-123,7,24274,5358,5412,15,81,-4
32767,21620,6216,16,-150,-8,24252,5480,5304,-4,71,0
32767,21512,5846,-42,-131,-19,24114,5300,5280,-20,54,-12
32767,21236,5878,-79,-101,2,24102,5118,5146,-20,43,-15
32767,21194,5882,-76,-67,7,24152,5224,5366,-11,45,-18
32767,20998,5896,-72,-21,-1,24100,5054,5116,-24,35,-3
32767,21116,6030,-75,-6,-7,24338,4878,5056,-5,33,-14
32767,20996,6308,-92,-2,-18,24448,5034,5166,13,62,-14
32767,20796,6252,-86,-34,-38,24400,5250,5330,17,83,6
32767,21044,6152,-65,-47,-46,24172,5592,5150,13,92,0
32767,21236,5904,-4,-35,-3,23984,5256,5208,-22,80,-3
32767,21386,6024,37,-10,31,24204,4952,5102,-7,77,4
32767,21628,6626,3,-35,52,24302,4948,5312,14,91,8
32767,21404,6530,-79,-77,37,23944,5682,5326,17,91,13
32767,20912,6112,-146,-102,-11,23728,5752,5356,-20,57,-9
32767,20508,5590,-82,-70,-14,23906,5460,5242,-23,33,-24
32767,21074,5804,35,3,24,24042,5314,5288,-37,21,-36
32767,21488,6306,21,19,35,24056,5094,5246,-37,25,-10
32767,21302,6248,-56,22,22,24120,5084,5168,-30,21,-16
32767,20940,6172,-105,11,-10,24198,5170,5180,-14,31,-23
32767,20798,6334,-104,-3,-37,24152,5194,5186,-24,44,-14
32767,20886,6502,-56,-49,-28,24146,5018,5164,-16,44,2
32767,21062,6184,1,-71,7,24056,5294,5338,-11,59,4
32767,21208,5676,19,-52,17,23960,5448,5338,-11,45,20
32767,21356,5880,-15,23,31,23978,5502,5316,-21,30,-1
32767,21254,6466,-53,34,41,24046,5386,5246,-23,14,-10
32767,20926,6678,-102,-2,-6,24046,5446,5212,-25,10,-16
32767,20714,6470,-102,-52,-34,24002,5440,5302,-43,8,-17
32767,20572,6090,-30,-71,0,24172,5188,5232,-48,7,8
32767,20792,6014,34,-62,29,24234,5240,5318,-49,30,2
32767,21166,6012,52,-47,24,24048,5116,5088,-47,31,15
32767,21460,6400,-26,-42,4,23984,5026,5256,-31,29,-5
32767,21312,6414,-85,-59,-15,24026,5184,5182,-22,37,-6
32767,20934,6388,-94,-87,-19,24124,5284,5264,-18,31,2
32767,20796,6140,-31,-96,-2,24166,5352,5306,-36,43,6
32767,20914,5740,28,-73,11,23974,5150,5160,-36,46,30
32767,21102,5594,32,-26,9,23828,5224,5190,-19,40,14
32767,21118,5986,-16,28,14,24114,5350,5296,-11,21,-8
32767,21006,6296,-70,39,-12,24150,5444,5332,-29,29,-2
32767,20972,6970,-91,-15,-38,24030,5294,5236,-39,27,11
32767,21064,6852,-37,-89,-24,23994,5164,5118,-41,26,11
32767,21156,6364,2,-162,-11,24146,5160,5164,-29,23,10
32767,21258,5768,45,-152,24,24186,5192,5322,-25,29,17
32767,21298,5384,39,-89,42,24128,5280,5294,-27,38,24
32767,21028,5552,-5,-12,26,23976,5306,5208,-30,34,22
32767,20874,6042,-28,37,7,24016,5268,5120,-34,30,14
32767,20970,6370,-40,30,-2,24022,5188,5298,-34,32,29
32767,21080,6518,-66,-15,-8,23960,5230,5186,-34,33,30
32767,21016,6216,-45,-32,0,23974,5294,5242,-28,23,20
32767,20960,6064,35,-13,17,24118,5264,5136,-28,31,20
32767,21218,6164,59,-24,16,24042,5280,5276,-20,38,22
32767,21394,6186,36,-24,3,23854,5448,5314,-34,39,14
32767,21106,6056,9,-23,17,23812,5220,5302,-46,14,14
32767,21196,6094,32,-11,35,23948,4942,5164,-41,0,10
32767,21390,6208,21,-20,44,24186,5128,5082,-18,21,15
32767,21280,6094,-16,-23,45,24020,5268,5256,-12,28,22
32767,21106,5966,-44,-21,42,24016,5434,5276,-12,32,13
32767,20978,6122,-79,22,-24,23948,5468,5342,-28,25,10
32767,21030,6628,-86,-4,-37,23910,5298,5228,-37,17,16
32767,21048,6606,-58,-56,-24,23910,5124,5276,-35,3,8
32767,21012,6278,-7,-101,-1,24052,5198,5174,-25,2,-1
32767,21302,5690,20,-71,12,24156,5194,5166,-29,7,5
32767,21370,5776,-24,-27,8,24260,5052,5180,-18,22,8
32767,21206,5960,-82,14,-20,24172,5280,5290,-17,37,11
32767,20904,6192,-108,18,-36,23962,5258,5164,-26,36,33
32767,21010,6174,-80,16,-32,23854,5270,5364,-17,18,24
32767,21020,6232,-47,17,-13,23984,5504,5202,-25,12,12
32767,21088,6414,-6,-3,12,23896,5408,5238,-36,-1,14
32767,21260,6418,-8,-33,-2,23886,5192,5236,-30,-7,0
32767,21370,6256,-35,-52,-9,24076,5208,5126,-31,-7,-13
32767,21316,6098,-72,-58,-8,24198,5088,5232,-23,1,13
32767,20984,5972,-90,-44,-7,24322,5142,5408,-28,15,24
32767,20682,6224,-57,-34,8,24358,5190,5268,-28,39,45
32767,20760,6242,9,-30,13,24118,5128,5204,-21,46,46
32767,21026,6270,34,-58,7,23898,5268,5218,-6,36,14
32767,21234,6098,9,-75,0,23892,5418,5054,-8,16,6
32767,21176,5884,-73,-69,-47,23974,5544,5270,-21,12,5
32767,21134,5734,-69,-34,-44,24068,5470,5286,-37,17,16
32767,21100,5964,-16,7,-2,24098,5184,5234,-44,25,8
32767,21280,6194,13,17,24,24030,5086,5146,-34,30,16
32767,21374,6552,-50,-5,2,23946,5196,5282,-21,28,12
32767,21142,6486,-105,-50,-13,23950,5340,5226,-28,21,13
32767,20798,6322,-117,-79,-18,24174,5316,5170,-25,16,12
32767,20698,6030,-40,-79,-14,24136,5382,5244,-34,28,2
32767,21026,5696,46,-35,5,24150,5136,5294,-35,33,10
32767,21328,5784,19,11,5,23930,5128,5286,-34,41,10
32767,21344,6422,-83,18,-18,23950,5166,5296,-19,22,16
32767,20954,6836,-153,-43,-37,24010,5370,5230,-16,19,5
32767,20724,6864,-109,-112,-31,24106,5326,5194,-16,15,8
32767,20856,6308,-15,-152,-11,24038,5370,5356,-22,25,0
32767,21294,5658,62,-131,20,24018,5240,5246,-34,24,14
32767,21398,5460,24,-57,28,24220,5108,5254,-31,20,6
32767,20904,5642,-70,36,5,24180,5188,5230,-27,33,12
32767,20596,6428,-94,47,-27,24018,5270,5178,-22,35,27
32767,20732,6778,-71,0,-37,23868,5408,5272,-18,25,10
32767,20886,6734,-35,-67,-23,24036,5362,5282,-37,8,5
32767,21152,6210,14,-104,-18,24146,5228,5218,-47,9,8
32767,21434,5784,36,-94,-3,24028,5130,5270,-40,17,6
32767,21580,6170,-10,-83,15,24034,5140,5192,-34,14,8
32767,21152,6596,-106,-94,9,24024,5174,5296,-21,11,6
32767,20556,6738,-133,-157,2,23922,5200,5160,-18,7,6
32767,20420,6146,-34,-193,4,24058,5260,5292,-15,6,2
32767,20716,5552,63,-152,20,24184,5404,5276,-21,14,0
32767,21156,5230,101,-64,31,24132,5216,5176,-36,27,8
32767,21404,5408,23,29,22,23870,5134,5212,-27,30,13
32767,21160,6234,-107,67,-22,23962,5216,5150,-10,14,1
32767,20722,6836,-170,46,-66,24196,5416,5258,-11,17,-8
32767,20568,6886,-45,-59,-49,24208,5390,5322,-30,22,8
32767,21128,6284,82,-111,-12,24112,5210,5256,-37,35,13
32767,21656,5784,87,-107,5,23982,5216,5276,-33,29,6
32767,21716,5582,0,-65,8,23922,5256,5180,-28,19,7
32767,21422,5708,-93,-16,7,23992,5248,5268,-29,10,-3
32767,20758,6078,-134,13,7,24266,5154,5124,-24,13,0
32767,20436,6480,-43,6,-26,24340,5196,5286,-21,33,9
32767,20836,6356,13,-16,-32,24192,5432,5346,-30,54,30
32767,21228,6408,-8,-41,-30,23886,5272,5356,-36,45,36
32767,21316,6044,-42,-56,-29,23754,5254,5134,-35,23,12
32767,21116,6028,-71,-58,-14,23916,5300,5128,-23,-5,-9
32767,20908,5864,-57,-35,-8,24048,5306,5084,-24,-1,-13
32767,20876,5938,-16,-7,-11,24200,5096,5194,-25,7,-10
32767,21236,6198,-2,13,6,24296,5196,5372,-26,30,-4
32767,21222,6354,-53,9,-4,24076,5200,5326,-30,46,26
32767,20946,6606,-96,-31,-16,23926,5246,5266,-25,28,24
32767,20666,6494,-81,-70,-12,23990,5414,5248,-16,5,-4
32767,20616,6212,-31,-102,-12,24224,5370,5108,-13,-2,-15
32767,20816,6124,25,-107,-10,24240,5240,5394,-22,15,-16
32767,21110,5818,32,-86,-10,24026,5364,5262,-40,34,10
32767,21312,5736,-16,-44,-17,23956,5118,5202,-43,11,-4
32767,21176,5892,-103,7,-15,24062,5188,5216,-33,6,-4
32767,20732,6274,-119,14,-10,24156,5176,5158,-27,2,8
32767,20568,6648,-73,-23,-11,24122,5164,5078,-17,6,0
32767,20756,6646,-11,-75,-9,24212,5272,5248,-5,19,-6
32767,21156,6198,7,-111,-16,24258,5366,5294,-20,40,2
32767,21262,5824,-13,-95,-10,24136,5210,5272,-32,43,34
32767,21016,5564,-37,-49,2,23886,5242,5302,-27,41,24
32767,20960,6116,-53,-12,3,23904,5480,5264,-21,19,9
32767,20792,6650,-81,-54,-18,24098,5408,5198,-35,7,-4
32767,20744,6906,-69,-100,-37,24068,5246,5166,-36,11,-5
32767,20798,6560,-48,-173,-44,24138,5270,5214,-37,24,-3
32767,20962,6284,-17,-201,-49,24216,5196,5322,-42,33,4
32767,20968,5852,0,-187,-17,24172,5058,5134,-43,36,9
32767,20652,5616,1,-137,11,24084,5018,5200,-26,35,10
32767,20640,5724,10,-75,-11,24002,5162,5240,-15,25,4
32767,21242,6134,-38,-28,-57,24074,5304,5232,-15,19,-2
32767,21206,6366,-89,-26,-39,24106,5274,5160,-16,24,6
32767,20990,6260,-95,-47,-28,24148,5450,5292,-24,32,0
32767,20774,5876,-53,-42,-22,24112,5380,5338,-37,31,11
32767,20744,5714,2,-1,8,24128,5160,5134,-35,26,9
32767,21062,5988,-7,35,-3,24014,5272,5258,-25,26,2
32767,21218,6462,-70,42,-44,23998,5300,5208,-27,21,3
32767,20950,6866,-113,-16,-31,24014,5262,5272,-34,22,-2
32767,20464,6446,-32,-94,12,24078,5162,5276,-32,21,10
32767,20788,5940,50,-106,10,24076,5192,5208,-28,28,8
32767,21212,5576,48,-64,9,24100,5260,5272,-24,24,9
32767,21378,6222,-40,-43,9,24092,5240,5210,-30,22,6
32767,20958,6456,-108,-40,-11,24132,5280,5222,-30,34,9
32767,20712,6704,-110,-97,8,24034,5264,5238,-26,42,13
32767,20542,6164,-34,-132,37,24008,5188,5234,-26,43,4
32767,20516,5532,5,-111,26,23924,5260,5230,-27,39,5
32767,20564,5380,2,-1,-1,23882,5282,5264,-33,26,4
32767,20756,6018,6,60,-17,23904,5284,5218,-37,11,0
32767,21276,6490,-36,68,-63,24044,5210,5216,-28,1,-6
32767,21170,6764,-100,35,-56,24172,5278,5206,-20,9,-11
32767,20842,6786,-88,-31,-24,24196,5276,5304,-23,23,-1
32767,20640,6400,-5,-86,10,24142,5336,5400,-33,33,8
32767,20890,5796,67,-104,26,24066,5266,5178,-41,28,15
32767,21308,5786,18,-75,12,24040,5212,5196,-39,21,-7
32767,20968,5916,-116,-14,-24,23922,5106,5150,-33,14,-3
32767,20566,6300,-139,10,-36,24124,5078,5240,-19,3,-15
32767,20462,6316,-66,2,-19,24308,5250,5202,-15,13,-16
32767,20658,6192,1,-13,13,24184,5234,5268,-29,32,9
32767,20796,6232,23,-25,20,24098,5084,5266,-34,37,27
32767,20942,6306,-6,-32,-8,24100,5198,5190,-16,30,12
32767,20872,6178,-55,-38,-41,24058,5476,5270,-15,29,8
32767,20938,6162,-49,-34,-41,24086,5422,5270,-29,29,14
32767,20968,6086,-35,-23,-25,24088,5348,5190,-40,27,3
32767,21024,6216,-53,-31,-23,24094,5178,5218,-44,25,2
32767,20538,6298,-105,-62,-18,23992,5082,5290,-34,28,14
32767,20396,6154,-62,-64,-25,23936,5216,5262,-33,27,16
32767,20590,5964,43,-39,-8,23970,5332,5228,-27,12,8
32767,21012,5946,47,-11,-11,24018,5384,5194,-36,7,-9
32767,21260,6390,-41,-25,-31,24226,5238,5176,-39,10,-8
32767,20946,6498,-123,-48,-23,24122,5110,5368,-43,23,-4
32767,20380,6338,-98,-86,-11,23928,4984,5178,-39,30,16
32767,20482,6006,0,-87,-13,23992,5082,5256,-23,10,10
32767,21002,5676,58,-45,4,24124,5372,5286,-21,4,-2
32767,21234,5738,14,19,6,24366,5190,5092,-30,15,-4
32767,21018,6316,-86,41,-10,24326,5052,5194,-16,41,1
32767,20488,6608,-109,10,-18,24028,5326,5322,-20,56,10
32767,20406,6740,-76,-49,-15,23918,5242,5254,-28,47,28
32767,20588,6430,-11,-97,-21,23920,5102,5322,-23,28,18
32767,20932,6008,23,-108,-17,23998,5254,5276,-10,18,11
32767,21094,5826,8,-78,-3,24108,5476,5164,-10,12,5
32767,20888,5838,-20,-35,6,24280,5440,5322,-32,22,-1
32767,20678,6230,-49,-23,-10,24246,5268,5228,-51,41,20
32767,20750,6412,-62,-51,-33,23980,5056,5272,-43,46,27
32767,20764,6296,-58,-76,-22,23894,5040,5180,-38,36,5
32767,20714,6090,-24,-77,-4,23960,5130,5150,-26,26,-1
32767,20742,5896,19,-52,13,23980,5156,5204,-15,29,13
32767,21060,5972,18,-27,5,24018,5316,5278,-10,28,0
32767,21086,6076,-42,-8,-13,24018,5438,5306,-26,29,1
32767,20814,6348,-99,-10,-10,24044,5150,5204,-34,26,4
32767,20492,6632,-114,-51,-30,23950,5218,5246,-21,20,-8
32767,20414,6522,-48,-94,-27,24086,5344,5218,-22,10,-18
32767,20728,6240,39,-117,-4,24176,5244,5282,-28,17,-17
32767,21090,5892,65,-118,18,24216,5234,5254,-37,31,-3
32767,21034,5624,14,-71,22,24100,5222,5222,-34,42,6
32767,20810,5776,-63,-14,-4,24022,5190,5284,-32,37,7
32767,20740,6064,-109,26,-40,23918,5234,5250,-26,29,6
32767,20666,6502,-118,20,-39,24128,5044,5270,-24,19,1
32767,20606,6750,-25,-36,11,24204,5104,5214,-22,41,8
32767,20882,6454,26,-78,21,24094,5260,5298,-17,49,21
32767,21002,5984,7,-89,14,23998,5340,5208,-23,50,11
32767,20900,5890,-59,-72,8,23860,5402,5242,-24,38,14
32767,20530,5974,-96,-38,-9,23908,5280,5176,-29,26,13
32767,20234,6060,-46,-9,-8,24014,5210,5332,-27,21,6
32767,20468,6310,56,2,21,24118,5210,5346,-32,28,13
32767,21174,6616,138,-13,67,24038,5194,5242,-34,43,18
32767,21752,6724,59,-78,90,23880,5164,5234,-35,42,23
32767,21276,6404,-96,-133,63,23832,5242,5246,-24,24,16
32767,20216,6004,-146,-155,41,23854,5306,5134,-24,8,4
32767,19742,5784,-74,-123,23,24038,5232,5188,-22,4,7
32767,19980,5628,50,-72,-10,24130,5230,5260,-19,15,-4
32767,20702,5920,86,-16,-13,24042,5240,5266,-36,25,4
32767,21228,6166,28,6,-19,23984,5080,5202,-35,27,18
32767,21136,6232,-77,0,-23,23960,5176,5162,-28,25,14
32767,20830,6314,-78,-15,-1,23994,5292,5118,-14,16,15
32767,20698,6312,-63,-38,-9,24056,5362,5312,-20,17,4
32767,20728,6304,-44,-52,-18,24136,5130,5276,-31,21,10
32767,20748,6172,-38,-64,-17,24224,5182,5274,-29,35,9
32767,20604,6018,-20,-46,-10,24000,5268,5372,-32,53,19
32767,20582,5974,4,-20,-2,23766,5122,5262,-32,40,26
32767,20724,6158,6,2,-12,23768,5194,5264,-25,18,9
32767,21004,6506,-32,-29,-31,24002,5286,5238,-15,6,2
32767,20914,6570,-76,-75,-31,24234,5388,5256,-26,29,10
32767,20740,6358,-63,-114,-22,24152,5256,5288,-34,44,16
32767,20702,5986,-8,-106,-9,23934,5170,5206,-45,50,17
32767,20758,5504,32,-56,7,23970,5044,5196,-37,45,25
32767,20860,5620,19,20,-1,23902,5138,5138,-28,42,18
32767,20848,6224,-34,62,-24,23712,5376,5282,-16,29,16
32767,20820,6668,-69,40,-39,23760,5416,5252,-24,14,3
32767,20824,6810,-51,-133,-13,23988,5280,5294,-35,11,-5
32767,20710,6062,-24,-174,1,24048,5148,5208,-38,22,9
32767,20624,5406,27,-128,14,23994,5122,5192,-28,28,12
32767,20818,5394,42,-29,5,23962,5220,5246,-25,30,1
32767,21194,6178,-23,16,-17,23872,5212,5296,-26,17,5
32767,20942,6556,-122,20,-19,23900,5318,5248,-22,13,4
32767,20364,6512,-93,-19,1,23852,5378,5242,-30,0,1
32767,20286,6236,-4,-40,10,24082,5224,5286,-38,-7,8
32767,20598,6342,67,-57,8,24298,5248,5168,-37,2,2
32767,21220,6496,29,-91,-13,24184,5046,5216,-45,16,3
32767,21228,6324,-62,-116,-39,24194,4880,5144,-25,31,11
32767,20842,5868,-97,-110,-28,23956,5066,5230,-11,42,13
32767,20642,5476,-42,-56,-3,23836,5224,5206,-7,34,31
32767,20896,5690,12,29,19,23892,5364,5244,-9,22,25
32767,20886,6504,-47,43,17,24044,5464,5266,-18,18,21
32767,20602,6898,-107,-1,-24,24140,5382,5310,-38,26,21
32767,20288,6704,-103,-72,-45,24082,5180,5224,-44,34,29
32767,20392,6150,-13,-100,-25,23978,5124,5186,-37,30,16
32767,20904,5732,52,-77,-11,23904,5184,5256,-25,22,13
32767,21176,5898,35,-32,-4,23936,5144,5164,-22,17,6
32767,20952,6230,-39,-10,8,24014,5124,5110,-18,16,7
32767,20764,6514,-83,-28,-16,23980,5188,5332,-16,25,16
32767,20592,6442,-89,-59,-32,24042,5274,5368,-23,24,29
32767,20596,6138,-33,-68,-11,24024,5294,5308,-28,23,22
32767,20688,5900,19,-48,-1,23944,5278,5206,-25,14,17
32767,20884,5864,27,-18,5,23888,5288,5148,-20,9,1
32767,20954,6176,-6,-3,12,23978,5314,5148,-25,18,-6
32767,20760,6298,-63,-9,-9,24042,5122,5274,-31,22,1
32767,20526,6634,-79,-42,-37,23950,5080,5162,-32,31,9
32767,20648,6434,-20,-73,-27,24012,5160,5456,-25,21,13
32767,20970,6200,14,-92,-4,23954,5288,5302,-27,18,13
32767,21112,5788,-1,-74,10,23948,5286,5250,-18,9,5
32767,20886,5714,-35,-36,11,24062,5404,5230,-27,12,-6
32767,20508,5968,-37,0,19,24228,5270,5202,-36,17,-4
32767,20516,6480,-30,-10,2,24026,4990,5274,-38,37,9
32767,20750,6730,-38,-49,-32,23920,5008,5252,-21,27,16
32767,20798,6406,-53,-108,-34,23930,5238,5258,-18,22,-1
32767,20716,5926,-16,-108,-9,23984,5356,5156,-11,15,9
32767,20686,5674,41,-63,18,24106,5300,5316,-19,13,-5
32767,20848,5606,45,-5,13,24066,5438,5226,-40,20,-3
32767,20970,6136,-16,30,-13,24002,5152,5290,-44,17,15
32767,20824,6588,-77,21,-30,24000,5220,5170,-35,21,-1
32767,20808,6726,-75,-29,-18,24036,5212,5186,-32,12,-9
32767,20788,6554,-37,-78,3,24126,5166,5152,-28,26,-1
32767,20918,6096,-11,-100,8,24022,5240,5354,-29,34,-2
32767,20772,6110,-30,-87,-5,23958,5158,5286,-42,33,7
32767,20646,6030,-34,-71,-14,23948,4948,5262,-33,21,10
32767,20780,5944,-20,-45,-12,23968,5204,5142,-16,17,-6
32767,20744,5822,-28,-10,-1,23976,5370,5234,-22,10,0
32767,20730,6072,-33,12,-7,24034,5254,5220,-18,15,3
32767,20754,6662,-47,-4,-19,24186,5284,5320,-24,21,0
32767,20696,6780,-37,-55,-16,24116,5280,5316,-37,24,10
32767,20720,6304,-17,-120,-8,23982,5136,5280,-32,20,14
32767,20852,5782,6,-108,-23,23936,5172,5258,-26,16,8
32767,20988,5504,26,-50,-14,24012,5242,5178,-26,11,10
32767,21110,5972,8,3,7,24074,5230,5228,-27,14,9
32767,20986,6262,-36,24,7,24158,5180,5364,-29,22,8
32767,20718,6608,-95,-5,-6,24152,5228,5192,-34,31,14
32767,20336,6440,-93,-35,-21,24044,5052,5320,-20,33,10
32767,20366,6070,7,-54,-22,23832,5244,5142,-21,27,15
32767,20836,6166,58,-47,-18,23912,5302,5266,-21,5,13
32767,21386,6416,18,-58,-18,23922,5302,5212,-26,5,7
32767,21188,6394,-57,-75,-16,24098,5174,5086,-26,6,9
32767,20666,6084,-70,-89,-3,24216,5194,5260,-22,18,1
32767,20488,5854,-16,-75,-1,24128,5276,5244,-31,32,15
32767,21246,5924,-8,-2,-2,23982,5150,5276,-31,28,25
32767,21004,6324,-84,13,-11,23862,5162,5252,-30,17,7
32767,20504,6424,-95,-5,-11,23988,5348,5168,-17,4,-3
32767,20302,6400,-40,-29,-6,24014,5292,5192,-23,5,-6
32767,20548,6248,19,-47,-6,24114,5196,5228,-26,13,2
32767,20904,6418,20,-71,-16,24160,5104,5326,-23,21,1
32767,21042,6470,8,-96,-25,24174,5172,5280,-31,32,21
32767,21140,6188,-25,-118,0,24094,5242,5294,-28,33,38
32767,20988,5666,-36,-95,9,24026,5326,5262,-25,28,22
32767,20846,5512,-43,-28,14,24074,5388,5208,-30,19,-3
32767,20658,5900,-56,38,28,23966,5072,5196,-28,20,-3
32767,20392,6514,-63,46,-1,23888,5184,5216,-34,21,-7
32767,20472,6798,-39,0,-28,23922,5212,5244,-31,9,5
32767,20734,6672,-9,-67,-26,24036,5154,5168,-31,11,0
32767,20892,6176,41,-109,-6,24276,5114,5172,-17,16,0
32767,20990,5824,70,-100,15,24122,5154,5314,-14,30,1
32767,21120,5452,54,-54,16,23906,5328,5262,-18,30,12
32767,21286,5892,-34,-17,3,23986,5448,5288,-27,14,2
32767,21134,6218,-149,1,-32,24070,5336,5178,-36,9,-2
32767,20610,6420,-169,-12,-25,24096,5150,5052,-30,10,-9
32767,20252,6454,-66,-35,8,24082,5148,5314,-24,16,-12
32767,20404,6194,64,-55,16,24130,5174,5168,-34,21,-2
32767,21264,6236,63,-63,-2,24064,5086,5248,-33,20,4
32767,21344,6234,-45,-64,-17,24032,5110,5162,-27,23,10
32767,20830,6160,-130,-72,-39,24066,5240,5186,-18,20,4
32767,20596,5946,-86,-59,-29,24106,5256,5224,-18,20,4
32767,20758,5778,-15,-24,5,24024,5256,5306,-23,15,6
32767,20954,6148,-10,5,16,24040,5260,5292,-20,12,7
32767,20774,6560,-38,-2,9,24208,5382,5204,-25,11,1
32767,20650,6632,-50,-52,-11,24158,5314,5134,-35,17,11
32767,20724,6328,-37,-99,-17,24092,5182,5126,-35,22,13
32767,20852,6020,-24,-103,-8,24090,5132,5224,-24,25,9
32767,20758,5908,-22,-70,-2,24058,5238,5290,-28,26,13
32767,20462,5926,-4,-26,11,24062,5078,5296,-25,18,15
32767,20388,6064,52,-1,17,24116,5200,5146,-19,15,6
32767,20922,6366,57,-9,-12,24046,5288,5302,-22,20,10
32767,21270,6476,-16,-39,-47,23892,5344,5276,-30,16,14
32767,21038,6518,-80,-77,-38,24000,5154,5254,-29,5,13
32767,20590,6080,-21,-97,-1,24132,5218,5234,-32,7,4
32767,20802,5798,45,-72,2,24212,5268,5194,-33,8,8
32767,21230,5780,50,-24,-4,24114,5070,5078,-26,11,13
32767,21250,6040,-24,15,-7,24168,5102,5248,-10,12,8
32767,20978,6374,-98,5,-13,24064,5282,5350,-13,17,21
32767,20590,6596,-126,-35,-26,23994,5246,5376,-22,17,25
32767,20418,6464,-86,-75,-33,23940,5170,5160,-19,5,10
32767,20620,5948,5,-84,-20,24030,5278,5216,-6,-5,-5
32767,21212,5766,75,-31,12,24154,5436,5228,-11,1,-4
32767,21400,6006,11,11,15,24416,5308,5370,-26,10,12
32767,21004,6376,-94,11,-5,24518,5284,5274,-44,40,19
32767,20440,6706,-124,-30,-21,24180,5080,5302,-46,54,39
32767,20194,6428,-50,-84,-23,23834,5096,5226,-28,52,19
32767,20688,6152,48,-101,-22,23776,5400,5218,-11,20,-12
32767,21350,5744,68,-76,-7,24042,5416,5192,-22,6,-15
32767,21512,5814,-48,-9,7,24224,5258,5286,-29,15,-4
32767,20928,6152,-130,16,2,24216,5246,5262,-35,29,3
32767,20340,6384,-119,11,-2,24026,5246,5254,-40,27,1
32767,20132,6698,-46,-21,-3,24058,5170,5132,-29,22,-4
32767,20370,6578,35,-65,-9,24170,5220,5190,-21,25,-1
32767,20796,6212,65,-91,-25,24224,5334,5228,-17,30,8
32767,21226,6040,45,-87,-14,24154,5332,5338,-33,29,2
32767,21336,5768,7,-57,-1,24230,5166,5228,-38,31,6
32767,21264,5924,-69,-22,6,24100,5152,5260,-32,37,5
32767,20800,6228,-95,-10,8,23894,5176,5218,-27,32,5
32767,20496,6380,-73,-16,3,23908,5178,5118,-20,14,-3
32767,20752,6282,20,-24,0,24130,5148,5180,-19,4,-4
32767,20940,6356,1,-42,-7,24210,5272,5178,-13,5,0
32767,20698,6102,-44,-54,-26,24176,5240,5340,-20,13,1
32767,20562,5784,-7,-36,-14,24076,5152,5288,-25,18,23
32767,20808,5786,28,4,-14,24124,5282,5274,-21,12,11
32767,21226,5798,25,44,-12,24190,5534,5270,-16,10,8
32767,21368,6280,-57,67,-11,24170,5446,5224,-34,10,9
32767,21006,6460,-125,62,-27,24070,5112,5196,-37,5,6
32767,20312,6244,-108,46,-28,24090,5044,5234,-23,4,1
32767,20280,6088,6,51,-27,24256,5334,5336,-24,15,-2
32767,20896,6106,66,93,-22,24294,5426,5348,-43,34,20
32767,20916,5378,46,142,-32,23950,5162,5218,-48,38,21
32767,20796,5530,-6,225,-58,23860,5156,5072,-27,26,0
32767,21006,5806,3,283,-55,23924,5276,5200,-21,7,-10
32767,21078,6212,-17,309,-37,24100,5192,5230,-17,0,-10
32767,20850,6238,9,314,-23,24242,5242,5294,-26,6,-6
32767,20882,6186,45,312,-2,24248,5318,5332,-26,18,2
32767,21070,6010,49,303,-11,24186,5244,5248,-33,24,7
32767,20942,5760,-27,312,-49,24036,5126,5118,-27,24,3
32767,20708,5962,-19,338,-61,24088,5284,5228,-15,17,-8
32767,20886,6080,-10,349,-63,24254,5364,5208,-18,16,-4
32767,20796,5812,26,374,-56,24162,5328,5274,-27,29,-4
32767,20908,5624,31,423,-56,24170,5168,5254,-34,28,-2
32767,20632,5142,62,512,-53,24192,4998,5270,-25,23,0
32767,20448,4380,120,679,-77,24136,5074,5222,-19,20,-1
32767,20582,4034,132,974,-155,24156,5168,5276,-10,9,7
32767,20684,4514,126,1183,-224,24192,5318,5218,-13,6,14
32767,20886,5062,112,1325,-279,24346,5408,5264,-15,10,15
32767,21124,5342,98,1380,-273,24336,5450,5278,-33,32,18
32734,21248,5006,148,1436,-196,24142,5326,5258,-45,39,25
32586,20998,3374,203,1568,-150,24014,5158,5200,-40,25,11
31416,21530,5106,220,1743,-190,24114,5172,5118,-28,13,-2
30324,21660,6566,116,1671,-246,24196,5238,5358,-26,11,-1
29664,21462,5758,86,1495,-300,24118,5130,5194,-35,18,14
29576,21296,5522,73,1394,-291,24116,5100,5256,-21,18,14
29700,21018,4930,149,1327,-244,24126,5324,5166,-18,26,4
29806,20952,3784,260,1341,-189,24166,5298,5212,-25,25,13
29370,21582,3962,351,1432,-159,24258,5284,5230,-22,25,7
28858,21886,4028,322,1482,-162,24150,5344,5348,-27,28,5
28472,21590,4020,214,1483,-236,24108,5326,5158,-29,24,16
28066,21296,3738,129,1487,-346,24064,5156,5310,-36,11,-5
27732,20960,3198,172,1478,-335,24228,5186,5204,-26,11,-2
27122,21316,3444,318,1470,-258,24248,5236,5290,-21,14,-3
26182,22300,3780,360,1408,-226,24208,5320,5180,-21,25,2
25588,22670,3762,282,1294,-227,24280,5076,5178,-16,30,8
25254,22486,3508,191,1177,-217,24134,5216,5310,-6,48,15
25590,22018,2950,165,1078,-206,24030,5328,5236,-9,39,27
26258,21418,2032,214,1045,-184,24078,5436,5254,-15,22,13
25926,21332,1584,297,1109,-153,24224,5484,5284,-18,17,-1
25134,21642,1952,324,1134,-214,24326,5342,5246,-37,26,7
24732,21818,1482,308,1132,-297,24316,5112,5242,-30,36,14
24736,22088,1294,268,1123,-306,24162,5140,5262,-25,46,14
24680,21956,1158,220,1107,-242,24040,5214,5148,-21,41,24
24128,21678,1282,247,1072,-168,24086,5264,5234,-16,32,12
23388,22036,1502,340,958,-152,24046,5310,5220,-12,26,-2
21454,22490,-1726,94,819,-281,24086,5336,5150,1,23,-2
21094,22422,-1432,63,716,-205,24096,5336,5236,7,26,-8
21082,22260,-1582,41,563,-131,24214,5230,5170,3,33,4
21380,21924,-2130,36,469,-61,24252,5134,5222,17,48,4
21672,21900,-2508,53,430,-27,24172,4954,5220,-1,74,26
21966,21944,-2966,67,376,1,23882,5240,5266,30,67,40
21626,21778,-2818,-18,369,15,24038,5470,5214,41,45,14
21274,21316,-2918,-71,358,-28,24366,5650,5208,55,63,11
21900,20958,-3728,-56,391,-118,24116,5766,5602,31,76,8
22140,21224,-3968,-7,446,-118,23784,5602,5240,-17,61,20
21590,21642,-3530,-7,472,-103,23896,5268,5216,-23,29,10
20700,21802,-3470,-67,459,-71,24062,5082,5116,-12,34,-6
20718,21562,-3362,-56,416,-26,24032,5142,5094,22,38,14
21080,21434,-3478,-20,329,-37,24038,5394,5234,50,36,10
21216,21414,-3760,-45,297,-82,24114,5614,5396,40,22,2
21122,21622,-4412,-16,286,7,24184,5738,5362,26,20,-4
21228,21528,-4506,15,294,39,24136,5618,5158,-6,32,2
21384,21638,-4236,29,316,50,24044,5070,5052,-16,39,25
21100,21778,-4234,10,305,82,24102,4968,5156,31,44,22
20810,21604,-4348,-28,313,107,24034,5650,5296,62,66,6
20718,21196,-4202,5,289,105,23868,5986,5416,33,72,14
20830,21380,-4332,-3,269,18,23706,5728,5394,0,51,25
20624,21584,-3870,-75,193,-79,23946,5608,5298,4,22,-1
20868,21334,-4718,-166,163,-118,24116,5578,5272,4,23,-6
20976,21128,-4650,-103,125,-62,24116,5454,5120,4,32,12
20884,21312,-4882,-14,110,-22,24136,5628,5276,22,32,4
20844,21920,-4952,26,122,4,24058,5834,5372,13,47,-9
21078,21720,-5058,-35,144,15,23956,5602,5110,-21,40,9
21160,21374,-4858,-51,156,21,23872,5180,5130,-17,38,28
20878,21364,-4848,5,133,64,23966,5040,5180,14,45,34
20604,21568,-4796,22,102,46,24068,5984,5306,54,53,6
20644,21776,-5018,-19,86,-19,23986,6262,5438,13,53,2
20778,21700,-5158,-93,108,-50,23980,5954,5416,-24,43,25
20966,21502,-5292,-89,103,-55,23970,5658,5170,-30,40,10
21126,21454,-5430,-64,114,-43,23964,5536,5224,-32,40,5
21030,21604,-5452,14,129,76,23956,5680,5168,-28,47,12
20758,21564,-5308,31,143,136,23908,5610,5240,-20,49,3
20430,21778,-4982,6,136,96,23934,5638,5194,4,55,-2
20458,21518,-5304,-60,88,21,23910,5496,5372,-20,61,9
20828,21116,-5434,-98,96,-62,23872,5464,5240,-26,62,29
20942,21230,-5554,-63,78,-104,23974,5622,5270,-8,59,20
21160,21978,-6950,-42,44,-103,23980,5868,5250,-6,67,6
20616,21882,-5496,-88,110,-25,23868,5704,5358,-29,69,10
20454,21476,-5578,-73,101,39,23780,5534,5250,-25,68,17
21030,21464,-7070,-51,50,13,23668,5670,5222,-13,56,13
20902,21338,-5388,-63,109,-7,23738,5888,5334,-17,43,11
20802,21582,-5372,-69,72,-56,23938,5784,5328,-33,29,20
20372,21398,-5502,-122,70,-94,23966,5796,5124,-36,40,19
20244,21164,-5572,-81,39,-65,23784,5742,5204,-28,43,11
20596,21358,-5650,-21,4,-58,23810,5766,5400,-39,34,6
20808,21506,-5920,-12,8,-39,23900,5926,5310,-49,31,7
20966,21382,-5654,-24,19,-29,23922,5808,5322,-80,38,9
20638,21366,-5640,-44,-3,-75,23806,5380,5054,-88,44,23
20290,21418,-5734,-86,-6,-115,23714,5154,5100,-58,52,23
20338,21244,-5762,-91,-16,-144,23646,5446,5166,-16,61,11
20654,21412,-5680,-72,-40,-138,23622,5770,5284,-24,47,19
20588,21458,-5690,-20,-67,-41,23766,5762,5278,-37,39,30
20364,21588,-5842,6,-83,19,23848,5934,5304,-40,41,16
20520,21674,-5958,-9,-75,29,23856,5730,5304,-75,43,7
20716,21582,-5830,-53,-59,-5,23714,5372,5214,-77,41,13
20994,21286,-5846,-71,-52,-5,23568,5486,5100,-50,38,12
20906,20944,-5758,-37,-25,24,23602,5614,5154,-33,27,-4
20600,21020,-5670,12,-20,34,23854,5608,5184,-41,27,-12
20172,21280,-5580,4,-33,6,23814,5418,5220,-55,41,8
20386,21334,-5712,-45,-65,-84,23706,5434,5106,-47,40,16
20824,21438,-5898,-77,-60,-113,23710,5774,5168,-23,33,-5
20982,21474,-6154,-47,-20,-50,23828,5972,5210,-51,28,-7
20900,21786,-5994,-34,15,-32,23716,5522,5230,-86,31,-2
20466,21686,-5662,-82,24,-16,23616,5024,5020,-103,35,7
19982,21028,-5356,-133,2,-2,23686,5018,5170,-39,31,4
20454,20752,-5780,-3,-93,-16,23702,5450,5330,-10,34,-4
21196,21524,-6208,40,-61,15,23702,5814,5280,-11,23,11
20908,21822,-6202,3,-11,45,23718,5662,5170,-48,21,-5
20414,21712,-5858,-27,16,58,23828,5280,5132,-51,21,-7
20408,21348,-5624,-48,0,60,23816,5310,5206,-22,26,5
20558,21080,-5602,-23,-22,76,23764,5752,5478,-11,36,-4
20570,20982,-5644,-13,-48,42,23864,5910,5420,-35,34,8
20632,21120,-5940,-19,-59,-25,23666,5594,5130,-70,36,13
20880,21568,-6318,-24,-24,-52,23596,5328,5002,-62,33,7
20812,21774,-6086,-61,21,-13,23696,5142,5114,-36,39,2
20402,21390,-5726,-94,32,-1,23822,5274,5324,-7,46,10
20218,20978,-5406,-80,-7,25,23730,5684,5282,20,52,4
20066,20972,-5600,2,-70,54,23626,5904,5408,0,44,1
20582,21688,-5986,25,-100,13,23694,5936,5224,-32,38,5
21112,22012,-6320,-33,-66,20,23704,5450,5124,-72,36,0
21108,21414,-6124,-80,-4,56,23644,5128,5154,-57,43,5
20642,21152,-5968,-49,21,45,23564,5108,5100,-40,45,18
20274,21368,-5512,-43,12,31,23462,5480,5362,23,31,19
20250,21208,-5692,-40,-22,56,23676,5888,5280,15,25,1
20418,21174,-5772,-34,-52,22,23800,5798,5270,-19,19,4
20704,21566,-6278,-1,-56,29,23806,5600,5204,-23,23,9
21040,21864,-6414,-8,-11,29,23792,5638,5352,-41,32,-3
20974,21802,-6086,-73,38,20,23626,5434,5130,-50,29,11
20546,21288,-5594,-93,42,54,23526,5370,5076,-39,25,7
19884,20844,-5246,1,-36,119,23670,5338,5236,-24,21,-5
20046,21244,-5766,74,-112,92,23888,5538,5076,-10,38,8
20856,21894,-6380,40,-115,-11,23732,5628,5188,-10,50,8
21450,22014,-6590,-40,-48,-49,23572,5574,5396,-32,47,16
21200,21630,-6234,-85,28,-29,23504,5556,5184,-40,37,20
20240,21292,-5652,-76,35,-5,23534,5342,5064,-50,25,12
19626,21136,-5202,-48,-45,6,23548,5088,5096,-29,16,2
20082,21146,-5730,4,-147,18,23680,5332,5152,16,20,1
21274,21844,-6590,23,-122,-26,23454,5830,5312,22,17,5
21570,21920,-6438,-53,-36,-17,23478,6026,5284,-10,0,2
20656,21562,-6004,-48,10,30,23840,5570,5132,-48,-5,-8
20166,21568,-5432,-45,-2,-9,23988,5302,5230,-36,13,-5
20034,21328,-5538,-42,-60,-8,23718,5296,5148,-16,40,2
20408,21358,-5848,-14,-107,-19,23510,5466,5362,-5,36,4
20990,21550,-6348,-14,-95,-32,23490,5840,5326,-9,24,6
21254,21594,-6296,-17,-50,-15,23672,5712,5264,-40,16,7
20608,21508,-5774,-19,-6,7,23806,5282,5160,-48,22,13
20186,21470,-5478,-20,-29,10,23736,5394,5170,-18,36,10
20182,21456,-5630,-27,-75,-9,23602,5836,5270,-13,39,18
20416,21460,-5804,-41,-108,-45,23552,5668,5348,-34,30,17
20816,21498,-6006,-21,-105,-14,23626,5410,5186,-40,12,8
20962,21514,-6154,21,-80,16,23698,5260,5108,-31,6,0
20928,21920,-6148,25,-46,7,23792,5382,5112,-15,15,3
20640,21946,-5940,-48,-23,-16,23624,5498,5140,-14,21,10
20262,21346,-5682,-95,-45,-36,23470,5676,5262,-4,17,17
20576,21304,-5886,-30,-68,-12,23502,5802,5358,-13,8,12
20978,21574,-6050,12,-60,10,24004,5504,5308,-33,9,13
20852,21644,-6042,-31,-34,-11,23926,5500,5190,-28,28,9
20538,21552,-5728,-56,-28,-19,23552,5606,5306,-27,28,6
20324,21406,-5730,-34,-43,-13,23492,5540,5210,-40,18,7
20544,21530,-5722,-24,-63,-43,23624,5442,5150,-33,20,19
20810,21458,-5828,-61,-68,-53,23606,5636,5230,-15,28,23
20644,21208,-5818,-18,-60,-4,23506,5612,5160,-27,22,16
20488,21640,-5990,26,-66,6,23626,5306,5154,-27,10,6
20664,22018,-6046,-26,-58,-23,23636,5644,5214,-8,10,-2
20800,21730,-6104,-86,-38,-44,23700,5726,5234,-16,5,8
20838,21364,-5886,-83,-12,-39,23802,5556,5258,-22,3,17
20372,21296,-5740,-26,-12,9,23850,5738,5298,-22,18,11
20214,21558,-5480,-6,-37,19,23658,5576,5216,-36,22,15
21084,21330,-5942,-80,-54,-79,23608,5264,5160,-36,23,7
20682,21276,-5918,-50,-42,-44,23696,5444,5232,-16,17,1
20490,21500,-5854,-16,-38,-23,23624,5552,5306,-16,8,3
20330,21492,-5740,-26,-40,6,23690,5662,5188,-20,9,20
20520,21480,-5806,-20,-77,1,23814,5708,5162,-25,15,14
20778,21520,-6000,-23,-67,2,23828,5404,5188,-29,27,19
20812,21528,-5986,0,-53,20,23768,5278,5186,-16,37,22
20718,21680,-5846,0,-45,7,23582,5532,5314,17,33,8
20558,21484,-5904,-49,-37,-9,23550,6068,5336,8,12,1
20534,21246,-5784,-54,-41,-18,23740,5976,5214,-31,0,9
20654,21100,-5602,-36,-51,-13,23794,5536,5136,-55,12,16
20442,21198,-5786,26,-71,26,23704,5266,5126,-40,21,12
20580,21880,-5954,59,-81,-2,23450,5422,5198,-15,23,7
20644,22020,-6070,28,-75,2,23484,5472,5340,-10,10,3
20934,21984,-6088,-29,-57,-39,23776,5806,5280,-17,0,8
21026,21404,-5892,-79,-25,-23,23920,5640,5062,-25,6,12
20580,20944,-5470,-37,-10,38,23864,5494,5228,-13,21,2
20378,21164,-5706,26,-37,35,23696,5842,5264,-8,31,13
20396,21680,-5454,1,-66,-8,23608,5788,5402,-29,24,1
20498,21812,-5748,-39,-90,-10,23664,5430,5210,-48,15,4
20758,21444,-5924,-80,-86,-22,23712,5396,5130,-29,10,6
20738,21342,-5964,-50,-67,-1,23814,5536,5064,-18,8,9
20774,21618,-5958,-13,-47,15,23820,5602,5238,-21,17,14
20684,21812,-5790,-26,-54,20,23760,5532,5278,-16,26,15
20462,21576,-5680,-87,-61,4,23684,5674,5230,-14,28,8
20376,21052,-5694,-102,-70,-13,23600,5686,5298,-23,17,10
20526,21144,-5714,-50,-84,-28,23666,5504,5192,-34,13,8
20738,21714,-5922,-1,-97,-13,23810,5480,5184,-22,9,8
21072,21732,-5998,-43,-54,23,23790,5778,5274,-13,22,11
20686,21490,-5640,-30,-36,45,23664,5880,5234,-30,23,19
20272,21504,-5438,-19,-58,36,23668,5526,5174,-42,15,16
20178,21518,-5424,-35,-99,-1,23738,5396,5202,-28,10,14
20474,21280,-5628,-74,-130,-53,23894,5572,5224,-18,19,17
20826,21000,-5684,-74,-145,-76,23848,5806,5172,-20,23,14
20938,21292,-6020,-13,-133,-67,23656,5728,5192,-32,28,15
21050,21964,-6122,2,-84,-56,23606,5556,5328,-33,23,14
20936,22002,-5660,-68,-27,38,23840,5676,5170,-33,16,7
20308,21410,-5552,-52,-30,94,23818,5498,5146,-44,25,3
20002,21390,-5496,-24,-75,43,23738,5232,5200,-26,33,13
20542,21458,-5662,-65,-106,-31,23626,5502,5250,-1,36,9
21118,21172,-5748,-98,-87,-74,23620,5960,5298,2,27,13
21276,21104,-5708,-37,-65,-27,23682,6016,5342,-29,18,11
20886,21564,-5700,35,-34,41,23784,5666,5132,-50,24,14
20396,21916,-5236,-36,-30,26,23666,5396,5184,-39,28,12
20298,21538,-5258,-109,-69,-36,23580,5516,5224,-18,17,7
20492,21162,-5546,-120,-98,-89,23722,5756,5378,-17,13,5
20956,21362,-5796,-66,-92,-80,23958,5980,5216,-28,17,13
21232,21548,-5938,-20,-51,-6,23920,5574,5158,-59,25,12
21062,21628,-5954,3,-6,43,23750,5176,5180,-47,38,18
20462,21738,-5656,-30,17,9,23552,5286,5222,-17,43,22
20012,21570,-5302,-79,-16,-16,23528,5676,5234,-9,28,10
20102,20988,-5338,-55,-97,14,23660,5782,5334,-11,16,5
21112,21100,-5892,32,-113,37,23766,5752,5222,-26,13,1
21718,21490,-6298,19,-42,4,23754,5626,5204,-32,21,8
21144,21406,-5856,-53,32,-36,23650,5698,5248,-29,16,8
20434,21296,-5238,-70,32,-78,23800,5642,5238,-38,13,-2
19662,21422,-4950,-43,-37,-60,23810,5464,5130,-41,16,12
20208,21510,-5330,-4,-116,-29,23722,5196,5166,-22,17,3
21098,21562,-5896,13,-114,5,23694,5562,5270,4,13,-12
21346,21914,-6084,4,-38,11,23622,6038,5282,-5,7,-7
20716,21810,-5618,-43,2,11,23646,6014,5370,-32,-1,-7
20086,21434,-5020,-87,-25,-16,23838,5804,5222,-57,4,5
20108,20940,-4976,-89,-97,-27,23860,5306,5110,-65,9,7
21100,21098,-5858,23,-119,-19,23856,5116,5120,-41,17,11
21122,21754,-5946,-2,-57,-22,23810,5424,5256,-6,22,9
20594,21724,-5760,-34,-20,-34,23724,5702,5274,-12,21,9
20494,21630,-5364,-80,-22,-89,23770,5782,5302,-20,21,12
20708,21240,-5344,-104,-51,-78,23716,5644,5244,-30,16,20
20988,20800,-5498,-51,-56,-22,23762,5490,5206,-34,16,17
20872,21166,-5678,48,-43,4,23780,5548,5134,-27,19,24
20712,21894,-5670,17,-15,-29,23728,5660,5220,-19,18,28
20214,21650,-5410,-74,-21,-17,23730,5728,5328,-29,17,17
20270,21438,-5362,-45,-59,-11,23806,5614,5260,-33,13,16
20862,21386,-5536,-31,-78,8,23678,5332,5158,-34,17,11
21188,21112,-5780,-43,-65,5,23610,5396,5210,-13,13,12
21172,21008,-5784,-38,-24,-17,23844,5670,5178,-8,8,10
20672,21296,-5552,-6,-3,-20,23846,5818,5206,-13,9,10
20180,21614,-5284,-34,-25,-38,23684,5744,5294,-21,10,10
20062,21390,-5232,-62,-76,-36,23676,5804,5314,-30,-2,3
20862,21280,-5776,1,-103,-8,23724,5768,5180,-44,-7,-3
21248,21556,-5914,23,-63,11,23876,5420,5214,-62,-4,1
20948,21714,-5858,-25,-25,7,23926,5260,5262,-38,9,10
20442,21418,-5640,-62,-12,-8,23822,5352,5078,-17,15,12
20312,21200,-5330,-47,-29,-21,23862,5242,5134,4,16,19
20614,21312,-5290,-45,-70,-41,23866,5582,5234,32,21,17
20992,21040,-5486,-50,-76,-18,23556,6318,5534,14,11,14
20930,21090,-5766,-30,-48,-21,23628,6148,5238,-55,-5,3
20824,21496,-5660,-2,-25,-23,23974,5336,5016,-80,-8,7
20262,21552,-5540,-39,-13,-24,24102,4782,5144,-44,12,8
20246,21370,-5282,-71,-27,-44,23942,5238,5234,10,33,21
20754,21236,-5414,-47,-59,-30,23886,5942,5328,32,30,37
20992,21198,-5626,-11,-61,6,23912,6236,5394,-7,23,35
21012,21426,-5850,2,-36,4,23860,6000,5252,-53,19,39
20666,21590,-5710,-28,-6,4,23808,5376,5146,-64,18,36
20372,21342,-5518,-46,-9,9,23960,5220,5130,-9,25,27
20450,21386,-5542,-30,-42,-16,23922,5930,5270,17,42,26
20820,21284,-5520,-46,-44,-15,23724,6262,5314,-19,39,29
20772,21046,-5446,-52,-54,2,23502,5664,5212,-59,21,17
20450,21040,-5446,-14,-65,15,23544,5078,5192,-46,2,0
20426,21226,-5246,-4,-89,-6,23970,5268,5108,6,5,-7
20406,21294,-5292,-20,-139,-33,24248,5940,5256,14,32,6
20450,21236,-5072,-48,-187,-54,23960,5966,5220,-22,52,20
20550,21112,-5084,-31,-253,-22,23664,5442,5190,-35,46,8
20526,21068,-5158,16,-284,7,23580,5408,5174,-16,29,0
20642,21364,-4906,4,-337,-16,23724,5570,5348,3,17,3
20656,21534,-4756,-27,-414,22,23984,5870,5188,3,14,-2
20402,21382,-4792,-24,-464,103,24018,5950,5218,-15,23,9
20468,21196,-4382,22,-536,167,23796,5880,5304,-29,30,6
20314,20888,-3350,57,-693,217,23664,5726,5164,-41,17,5
19874,20442,-3068,120,-945,225,23764,5502,5190,-37,7,-2
20224,21436,-5498,226,-977,71,23986,5480,5288,-24,14,4
22070,22690,-6096,149,-737,-77,23946,5660,5060,-12,24,4
23786,23148,-5324,48,-559,-61,23694,5758,5240,-13,30,4
23146,23124,-4090,-24,-455,145,23696,5972,5366,-16,23,12
20760,21974,-2898,-11,-477,377,23762,5852,5176,-46,13,9
19052,21216,-2398,86,-637,388,23892,5298,5212,-55,14,10
19338,21158,-2980,77,-793,173,24150,5126,5138,-23,30,8
21040,21488,-3726,-63,-815,-115,23960,5798,5246,10,53,10
23392,21300,-3860,-278,-734,-255,23514,6132,5412,-7,46,12
23036,20862,-3380,-273,-664,-214,23596,5828,5346,-35,22,5
21518,21078,-2328,-168,-672,-180,23716,5596,5220,-44,9,5
20560,21634,-1550,-63,-795,-112,23910,5576,5200,-34,12,3
20060,22500,-1088,-44,-993,-26,24058,5620,5168,-36,24,8
20536,22994,-1700,-146,-1171,-17,23942,5578,5198,-42,43,7
22126,22366,-2334,-255,-1179,-2,23738,5510,5202,-33,45,9
23542,21360,-2334,-234,-1116,60,23554,5612,5196,-23,38,8
23130,21416,-2016,1,-916,52,23676,5704,5312,-19,15,5
22846,22118,-1674,-5,-840,65,23910,5774,5294,-16,13,3
22582,22508,-916,-126,-821,98,23924,5772,5194,-28,18,0
