ax,ay,az,gx,gy,gz,ax,ay,az,gx,gy,gz
21824,5494,5042,25,37,39,32767,17614,6238,1,-28,4
21866,5654,4994,54,49,42,32767,17736,6198,-24,-27,0
21936,5994,5048,48,48,37,32767,17612,6198,-48,-38,5
21988,6152,5002,-3,46,29,32767,17418,6204,-59,-42,12
21894,5992,5046,-49,52,17,32767,17220,6272,-58,-35,7
21650,5694,5098,-75,49,12,32767,17264,6406,-36,-26,-7
21686,5468,5182,-73,31,16,32767,17456,6408,-14,-16,-10
21976,5470,5198,-40,29,14,32767,17446,6414,-20,-34,-6
21858,5694,5216,-25,41,-2,32767,17534,6356,-36,-45,-7
21694,5722,5242,-33,39,-5,32767,17580,6286,-51,-51,-14
21660,5704,5252,-40,36,-4,32767,17436,6258,-82,-47,-20
21638,5664,5062,-39,38,-9,32767,17304,6254,-95,-49,-31
21724,5672,5148,-47,34,-6,32767,17166,6290,-77,-57,-15
21808,5612,5144,-39,24,-6,32767,17158,6202,-33,-54,-10
21750,5680,5170,-29,21,-8,32767,17182,6290,-4,-48,-15
21744,5572,5034,-11,-2,5,32767,17408,6286,29,-43,-13
21742,5506,4992,16,-1,17,32767,17560,6510,20,-39,-10
21700,5764,5172,44,9,12,32767,17644,6490,-10,-46,-18
21878,6062,5240,23,16,10,32767,17698,6342,-43,-60,-23
22084,6084,5192,-29,20,4,32767,17646,6168,-68,-66,-33
21980,5594,4970,-56,32,-3,32767,17606,6066,-97,-74,-31
21630,5134,4972,-13,36,-3,32767,17346,6048,-124,-68,-26
21400,5280,4908,64,25,-11,32767,17148,6032,-115,-67,-32
21870,6082,4926,76,4,-15,32767,16972,6178,-67,-46,-35
22114,6414,4992,-13,13,-30,32767,17004,6198,-21,-42,-41
22060,6124,4916,-110,18,-32,32767,17160,6284,17,-37,-36
21824,5534,5002,-133,24,-34,32767,17414,6338,30,-36,-41
21668,5176,5020,-86,18,-28,32767,17440,6348,10,-40,-44
21762,5260,5058,-12,13,-25,32767,17384,6278,-2,-44,-45
21820,5578,5062,31,13,-24,32767,17420,6174,3,-41,-48
21934,5900,5014,39,16,-18,32767,17492,6320,-1,-41,-37
21920,6084,4996,5,21,-24,32767,17452,6280,-7,-48,-36
21898,6060,5142,-29,27,-29,32767,17460,6248,-10,-48,-34
21826,5892,5022,-47,28,-26,32767,17498,6286,-16,-46,-34
21784,5740,5054,-48,29,-24,32767,17546,6194,-24,-37,-38
21804,5758,4822,-20,23,-17,32767,17526,6192,-27,-35,-36
21804,5820,4978,-14,24,-14,32767,17400,6290,-17,-34,-27
21806,5932,4934,2,26,-15,32767,17334,6268,-15,-32,-26
21786,6042,5084,-23,25,-15,32767,17416,6182,-5,-33,-26
21926,5878,4964,-48,22,-11,32767,17470,6206,-6,-31,-35
21938,5744,5036,-59,32,-12,32767,17188,6490,4,-35,-34
21782,5628,5060,-32,30,-9,32767,17056,6372,39,-36,-25
21830,5762,5098,7,29,-3,32767,17260,6218,99,-37,-25
22004,5864,5058,28,21,11,32767,17686,6292,141,-35,-28
21992,5832,5112,39,36,25,32767,18132,6290,119,-27,-23
21710,5760,5138,55,45,27,32767,18376,6276,43,-26,-17
21796,6024,5022,73,32,20,32767,17956,6446,-92,-43,-15
21924,6332,5144,40,32,-3,32767,17368,6166,-138,-70,-24
21984,6326,5198,-57,40,-29,32767,17176,6068,-117,-61,-35
21830,5858,4974,-102,33,-21,32767,17086,6174,-67,-49,-31
21750,5340,5160,-74,36,-14,32767,17232,6394,-14,-34,-21
21576,5454,5278,-7,25,-7,32767,17394,6292,17,-38,-16
21788,5858,5138,24,9,-3,32767,17490,6306,22,-42,-14
21952,6118,5092,6,10,-4,32767,17630,6296,13,-51,-20
21910,5970,5110,-25,19,-4,32767,17652,6338,-10,-47,-18
21752,5748,5076,-35,19,-5,32767,17596,6368,-34,-48,-21
21730,5770,5104,-29,13,-10,32767,17398,6336,-33,-53,-28
21860,5852,5084,-23,8,-10,32767,17504,6258,-15,-56,-23
21900,5788,5090,-15,14,-8,32767,17468,6256,3,-53,-13
21834,5840,5152,7,16,-3,32767,17584,6290,15,-48,-12
21808,5866,5048,26,13,3,32767,17658,6268,12,-44,-19
21866,5922,4920,41,12,11,32767,17636,6278,-6,-49,-21
21850,6032,4928,35,18,12,32767,17586,6234,-15,-47,-16
21896,6052,5040,12,21,9,32767,17524,6304,-9,-37,-13
21954,6122,4980,-16,26,2,32767,17492,6344,-23,-44,-16
21998,6062,4880,-42,26,-1,32767,17470,6264,-18,-45,-19
21968,5792,5012,-62,36,-4,32767,17572,6252,-7,-37,-23
21744,5588,5074,-44,39,-7,32767,17656,6330,-21,-25,-24
21732,5618,5100,-8,27,3,32767,17542,6388,-26,-34,-25
21830,5796,5036,16,22,-5,32767,17526,6334,-13,-41,-22
21880,6122,5008,3,29,-10,32767,17588,6224,-4,-39,-20
21860,6148,5102,-28,33,-14,32767,17618,6264,0,-36,-24
21822,5902,5054,-39,40,-16,32767,17630,6282,0,-36,-20
21704,5804,5138,-21,41,-9,32767,17676,6430,-5,-35,-10
21732,5830,5042,-5,34,-5,32767,17674,6422,-4,-38,-13
21744,6020,5062,5,30,-6,32767,17804,6328,-26,-45,-16
21850,6186,5072,-15,31,-9,32767,17748,6188,-58,-53,-14
22008,6196,5042,-45,39,-10,32767,17622,6128,-75,-41,-10
22024,6040,5026,-84,52,-14,32767,17402,6248,-76,-30,-11
21780,5808,4972,-78,63,-16,32767,17324,6282,-45,-30,-16
21524,5754,5008,-54,49,-20,32767,17332,6214,-9,-38,-11
21782,5878,4972,-42,33,-18,32767,17620,6218,30,-35,-13
22000,5972,4976,-48,43,-9,32767,17884,6282,49,-28,-10
21898,5930,4994,-52,62,-3,32767,17872,6536,7,-16,1
21712,5726,4980,-30,59,6,32767,17732,6436,-37,-37,-8
21556,5752,5082,21,47,3,32767,17564,6292,-52,-52,-8
21656,5988,5204,39,37,1,32767,17670,6228,-35,-48,-9
21878,6180,5220,10,40,-5,32767,17806,6268,-35,-51,-4
21802,6244,5132,-24,49,0,32767,17596,6264,-60,-52,7
21550,5996,5194,-47,60,6,32767,17370,6258,-60,-51,9
21466,5928,5086,-35,42,3,32767,17400,6278,-19,-50,3
21490,5822,5120,-26,21,10,32767,17660,6370,11,-55,-1
21628,5804,5170,-3,10,19,32767,17822,6444,-4,-61,2
21652,5796,5212,14,2,26,32767,17726,6342,-19,-60,1
21710,6030,5160,9,5,32,32767,17688,6282,-19,-67,3
21706,6166,5114,-9,4,27,32767,17696,6270,-24,-59,1
21668,6092,5018,-30,8,20,32767,17690,6224,-64,-69,-13
21726,5792,5016,-27,-1,20,32767,17622,6292,-71,-68,-13
21724,5838,5054,-16,2,14,32767,17386,6480,-46,-61,-9
21830,5956,5006,-30,-1,12,32767,17484,6268,-20,-58,-6
21924,5994,5110,-52,4,8,32767,17580,6218,-13,-51,-10
21748,5968,4992,-58,15,2,32767,17718,6126,-31,-63,-17
21694,5842,4986,-50,9,6,32767,17602,6134,-44,-60,-8
21754,5766,5070,-40,6,11,32767,17422,6292,-37,-50,-4
21820,5782,4886,-32,15,9,32767,17484,6296,-11,-47,-4
21838,5856,4886,-24,20,7,32767,17584,6150,1,-44,-6
21616,5888,4942,-17,21,6,32767,17708,6190,-4,-36,-8
21744,5870,4926,-6,5,10,32767,17740,6356,-22,-31,-10
21916,5858,4928,-4,9,13,32767,17566,6364,-35,-42,-12
21800,5962,4950,-8,27,10,32767,17436,6306,-25,-51,-12
21760,6062,5010,-25,24,9,32767,17570,6246,0,-45,-11
21880,5924,5032,-48,22,3,32767,17692,6122,6,-33,-13
21986,5858,5094,-45,32,-2,32767,17628,6328,-16,-28,-10
21782,5716,5032,-10,46,2,32767,17552,6312,-23,-30,-13
21694,5856,5020,14,36,4,32767,17630,6426,-2,-37,-12
21824,6002,4964,8,23,3,32767,17766,6362,4,-38,-10
21910,6198,5150,-17,30,0,32767,17688,6348,-9,-47,-4
21864,6130,5110,-41,35,-2,32767,17596,6216,-31,-43,-9
21766,5932,5070,-44,36,3,32767,17694,6178,-25,-46,-16
21712,5850,5084,-19,39,4,32767,17736,6162,-17,-45,-13
21638,5920,5166,-9,31,4,32767,17814,6234,-22,-41,-5
21824,6008,5154,-15,17,9,32767,17728,6374,-52,-34,-1
21884,6084,5040,-19,16,7,32767,17492,6398,-38,-29,-7
21694,6090,4938,-24,15,5,32767,17518,6404,22,-35,-11
21610,5992,5142,-33,5,1,32767,17786,6272,45,-33,-11
21894,6000,5072,-35,-1,1,32767,17846,6304,17,-36,3
21766,6132,5030,-52,26,1,32767,17778,6306,-13,-45,6
21648,5982,4950,-77,31,-3,32767,17740,6190,-29,-48,-5
21690,5844,5008,-59,35,-6,32767,17690,6172,-44,-45,-3
21704,5804,5122,-24,41,-3,32767,17642,6356,-38,-39,-3
21754,5912,4914,5,36,2,32767,17670,6456,-23,-49,2
21818,6122,4994,9,39,11,32767,17756,6364,-11,-48,6
21800,6154,5108,-13,39,11,32767,17740,6402,-11,-48,-5
21814,6108,5114,-43,33,11,32767,17732,6300,-8,-49,-13
21736,5940,5262,-46,34,9,32767,17794,6360,-12,-41,-4
21770,5854,5154,-28,22,11,32767,17734,6402,-10,-43,-5
21804,5894,5122,-16,20,9,32767,17788,6322,-15,-53,1
21782,5902,5026,-1,23,13,32767,17742,6386,-37,-57,-1
21640,6030,5188,3,24,9,32767,17664,6378,-50,-54,-5
21688,6184,5074,-19,12,3,32767,17756,6252,-42,-57,-5
21786,6170,4980,-45,15,4,32767,17826,6234,-49,-54,-1
21664,6014,5140,-53,23,0,32767,17770,6266,-59,-42,0
21564,5788,5174,-34,24,15,32767,17550,6268,-77,-51,0
21658,5762,5194,1,14,20,32767,17408,6378,-50,-42,-1
21862,6098,4936,16,5,21,32767,17562,6278,-23,-39,-3
21914,6368,4934,-22,11,13,32767,17658,6260,-4,-51,-11
21958,6182,5004,-111,9,4,32767,17626,6150,-3,-53,-7
21832,5662,4910,-114,5,9,32767,17688,6206,0,-55,-11
21718,5436,5052,-65,15,6,32767,17660,6116,10,-49,-1
21820,5598,5096,-5,13,13,32767,17606,6260,19,-41,7
21846,5890,4966,17,22,11,32767,17704,6314,21,-27,-3
21866,6058,4966,-4,28,6,32767,17896,6264,4,-34,-10
21782,6006,4914,-13,26,8,32767,17848,6328,-16,-40,-2
21680,5964,5046,-14,28,7,32767,17730,6418,-25,-43,-4
21824,5888,4970,-5,18,19,32767,17662,6416,-20,-48,-3
21954,6002,5096,-11,23,19,32767,17704,6282,-17,-43,-2
21968,6014,5000,-17,31,17,32767,17700,6088,-18,-41,-4
21664,5924,5086,-21,35,16,32767,17714,6094,-19,-32,-2
21676,5772,5116,9,26,20,32767,17574,6292,-12,-44,-5
21836,5958,5152,23,29,17,32767,17538,6334,23,-41,-1
21942,6258,5014,13,33,19,32767,17618,6356,56,-34,1
21892,6156,4942,-35,37,15,32767,17810,6264,59,-32,-3
21766,5772,5134,-57,33,18,32767,17884,6292,46,-33,-13
21796,5598,5066,-17,23,17,32767,17810,6470,42,-31,-15
21814,5768,5026,32,23,20,32767,17796,6572,50,-38,-5
21750,6048,5022,48,24,19,32767,17880,6434,79,-40,-3
21888,6034,4944,31,22,23,32767,18112,6210,79,-40,-11
21900,5844,4998,36,26,25,32767,18240,6160,35,-36,-23
21884,5802,5164,79,50,21,32767,18184,6250,-26,-36,-33
21790,6196,5060,114,58,16,32767,17708,6460,-43,-60,-43
21878,6540,4976,55,54,11,32767,17358,6420,-6,-74,-50
21890,6436,4950,3,57,8,32767,17330,6566,64,-90,-46
21774,6280,5032,-56,45,-3,32767,17594,6458,161,-98,-44
21596,6106,5080,-70,23,-8,32767,18124,6150,199,-100,-45
21426,5868,5130,-65,-3,4,32767,18168,5956,177,-76,-47
21544,5694,5396,-30,-29,20,32767,18152,5846,124,-26,-65
21450,5718,5298,34,-58,47,32767,18224,6266,99,6,-60
21386,5780,5490,82,-109,71,32767,18074,6386,89,-20,-70
21390,5992,5424,129,-179,90,32767,17978,5750,37,-9,-105
21380,6072,5624,186,-318,129,32767,17980,5966,30,36,-100
21530,6182,5878,206,-411,157,32767,17884,6240,57,63,-82
21594,6484,5894,203,-506,167,32767,17966,6430,71,55,-101
21570,6570,5924,175,-638,208,32767,18268,6680,97,47,-103
21656,6436,6276,144,-797,268,32767,18506,6836,81,25,-90
21848,6306,6290,136,-923,314,32767,18552,6864,59,-11,-89
22000,6388,6368,143,-1054,363,32767,18836,6566,32,-32,-104
22352,6674,6512,176,-1162,428,32767,18990,6646,-6,-51,-95
22886,7132,6360,173,-1274,474,32767,18984,6746,-62,-77,-78
23334,7362,6338,146,-1346,503,32767,18790,6636,-120,-114,-78
23850,7322,6048,112,-1407,540,32767,18528,6566,-155,-130,-68
24248,7238,5908,91,-1448,552,32767,18436,6644,-146,-143,-55
24624,7338,5638,73,-1478,547,32767,18380,6540,-147,-159,-56
25126,7456,5600,34,-1497,544,32767,18378,6180,-135,-183,-55
25736,7440,5450,-10,-1518,545,32767,18388,6036,-116,-152,-36
26390,7344,5190,-56,-1514,535,32767,18396,6222,-109,-136,-31
26796,7130,4866,-87,-1488,504,32767,18326,6120,-124,-137,-40
27116,7132,4690,-116,-1486,487,32767,18392,5862,-141,-131,-34
27456,7060,4506,-144,-1507,481,32767,18236,6046,-167,-118,-12
27980,7026,4368,-186,-1516,474,32767,18018,6040,-190,-110,-9
28388,6972,4040,-226,-1487,433,32767,17976,5946,-183,-88,-8
28790,6748,3898,-265,-1475,406,32767,18008,6006,-168,-66,0
29158,6458,3742,-289,-1488,393,32767,17974,6326,-160,-53,2
29384,6334,3744,-304,-1493,393,32767,17980,6414,-156,-64,6
29624,6186,3476,-307,-1520,377,32767,18010,6240,-180,-44,3
30216,6208,3388,-316,-1518,353,32767,17946,6428,-179,-18,17
30762,5922,3270,-348,-1515,349,32767,17856,6402,-181,-24,28
31110,5702,3004,-335,-1519,375,32767,17838,6240,-204,-40,18
31230,5422,3060,-280,-1492,370,32767,17776,6292,-222,-42,15
32020,5312,2800,-244,-1523,365,32767,17634,6210,-242,-38,12
31996,5362,2822,-224,-1536,347,32767,17652,6264,-261,-11,19
32164,5246,2672,-183,-1520,354,32767,17538,6594,-267,-35,22
32767,5446,2288,-170,-1537,343,32767,17470,6060,-294,-93,17
32767,5166,1988,-168,-1542,320,32767,17362,5586,-334,-51,-3
32767,5112,1946,-181,-1524,318,32767,17352,5824,-310,26,7
32767,4980,1800,-208,-1527,309,32767,17234,6208,-289,68,19
32767,4992,1436,-188,-1500,278,32767,17024,6460,-292,58,9
32767,5122,1008,-190,-1454,246,32767,16816,6360,-265,27,-10
32767,5216,540,-215,-1455,240,32767,16722,6542,-217,12,-1
32767,4996,548,-246,-1522,266,32767,16854,6088,-174,13,10
32767,4448,264,-225,-1611,296,32767,16916,6108,-131,67,19
32767,4272,-420,-153,-1577,285,32767,17114,6092,-89,106,37
32767,4410,-684,-85,-1463,251,32767,17092,6454,-102,118,57
32767,4418,-742,-45,-1444,237,32767,16912,6754,-153,69,46
32767,4570,-1542,-43,-1495,247,32767,16776,6338,-176,9,31
32767,4298,-1330,-58,-1512,300,32767,16648,6022,-180,18,13
32767,4038,-1980,-8,-1502,257,32767,16724,5978,-161,44,21
32767,4162,-2306,51,-1344,197,32767,16746,6194,-165,72,22
32767,4390,-2606,51,-1267,178,32767,16582,6454,-195,67,17
32767,4628,-3290,-18,-1203,161,32767,16346,6750,-195,7,1
32767,4278,-3448,-80,-1156,169,32767,15904,6540,-187,-88,-36
32767,3786,-3580,-73,-1116,179,32767,15798,5674,-92,-116,-81
32767,3628,-3928,-22,-1059,166,32767,16162,5460,28,-20,-74
32767,3802,-4372,12,-986,139,32767,16722,5814,100,103,-22
32767,4100,-4778,17,-919,119,32767,16948,6114,67,121,-15
32767,4332,-4840,-21,-854,115,32767,16830,6504,-13,76,-25
32767,4080,-4860,-60,-787,129,32767,16220,6440,-82,15,-54
32767,3648,-4660,-35,-735,165,32767,16236,5672,-29,0,-88
32767,3516,-4912,41,-751,176,32767,16842,5564,50,73,-77
32767,3816,-5156,79,-731,142,32767,17310,5620,31,134,-13
32767,4214,-5426,65,-689,116,32767,17342,5754,-60,161,21
32767,4342,-5628,-6,-647,129,32767,16926,6228,-155,173,41
32767,4058,-5682,-61,-595,158,32767,16328,6834,-201,121,8
32767,3776,-5460,-36,-584,193,32767,15890,6466,-201,42,-56
32767,3650,-5424,32,-632,190,32767,16188,5942,-98,33,-74
32767,3992,-5848,-14,-653,115,32767,16536,5992,-26,78,-23
32767,4156,-6248,-95,-639,99,32767,16708,5918,-8,111,27
32767,3986,-6406,-156,-610,112,32767,16682,5972,-7,122,41
32767,3658,-6454,-175,-563,111,32767,16614,6084,-12,131,59
32767,3284,-6358,-108,-531,102,32767,16520,6580,-41,105,46
32767,3318,-6330,6,-544,100,32767,16456,6478,-62,56,37
32767,3526,-6634,59,-598,81,32767,16624,6224,-70,28,41
32767,3750,-6904,44,-643,63,32767,16622,6422,-96,13,50
32767,3904,-7032,33,-652,77,32767,16666,6412,-127,-14,61
32767,3934,-7308,14,-623,82,32767,16418,6586,-173,-41,46
32767,3772,-7420,3,-582,76,32767,16000,6556,-187,-77,19
32767,3748,-7574,7,-565,71,32767,15764,6026,-127,-88,-16
32767,3732,-7700,8,-568,76,32767,16200,5940,-6,-25,12
32767,3628,-7866,10,-575,74,32767,16358,6098,10,-10,30
32767,3618,-8164,15,-564,56,32767,16442,6012,3,-9,29
32767,3696,-8258,-2,-536,38,32767,16436,6120,-28,-11,31
32767,3590,-8406,-39,-488,38,32767,16452,6224,-81,2,22
32767,3356,-8430,-20,-488,74,32767,16514,6196,-96,-10,13
32767,3222,-8562,29,-525,105,32767,16586,6114,-130,-30,13
32767,3364,-8766,51,-548,101,32767,16510,6008,-194,-45,11
32767,3582,-9052,34,-539,78,32767,16286,6080,-236,-55,26
32767,3624,-9208,0,-526,76,32767,15872,6136,-258,-60,20
32767,3386,-9478,-37,-509,88,32767,15486,5948,-238,-73,-6
32767,3164,-9658,-37,-474,96,32767,15276,5938,-175,-74,-28
32767,3188,-9766,-1,-441,83,32767,15350,5934,-67,-45,-35
32767,3408,-9898,-2,-402,40,32767,15440,5828,18,-26,-35
32767,3388,-10016,-31,-358,9,32767,15628,5932,76,-16,-27
32767,3364,-10286,-41,-306,-20,32767,15752,5940,103,-8,-29
32767,3234,-10378,-98,-229,-43,32767,15970,6008,114,-3,-34
32767,3098,-10228,-97,-153,-25,32767,16196,6142,121,-1,-41
32767,3016,-10108,-44,-106,12,32767,16336,5942,107,-4,-43
32767,3056,-10126,2,-80,19,32767,16404,5964,72,-7,-32
32767,3184,-10294,17,-58,7,32767,16402,6084,23,-15,-19
32767,3320,-10304,7,-33,2,32767,16214,6250,-16,-22,-13
32767,3394,-10272,4,-6,13,32767,16094,6104,-22,-33,-19
32767,3386,-10080,12,24,20,32767,16100,6016,-19,-36,-23
32767,3428,-10130,19,42,8,32767,16080,5972,-13,-31,-24
32767,3504,-10168,10,51,-12,32767,16138,5932,-8,-34,-22
32767,3600,-10074,-15,58,-23,32767,16156,6048,-12,-35,-16
32767,3526,-10030,-25,50,-24,32767,16038,6076,1,-22,-15
32767,3366,-10016,-23,44,-26,32767,16158,6090,23,-18,-24
32767,3430,-10020,-18,59,-23,32767,16322,6082,13,-16,-25
32767,3486,-10004,-16,65,-10,32767,16362,6058,-18,-25,-10
32767,3518,-10046,-31,53,-12,32767,16314,6184,-29,-30,3
32767,3574,-10016,-61,28,-15,32767,16236,6132,-31,-34,-1
32767,3470,-9966,-68,24,-3,32767,16390,6108,-46,-41,-7
32767,3302,-10000,-41,36,14,32767,16392,6114,-67,-40,-7
32767,3360,-9908,-5,45,17,32767,16266,6176,-90,-67,14
32767,3564,-9954,-1,33,4,32767,16102,6214,-68,-72,27
32767,3760,-9986,-23,4,2,32767,16132,6110,-30,-66,23
32767,3702,-10124,-37,16,8,32767,16240,6046,-17,-61,22
32767,3638,-10100,-43,57,13,32767,16204,5950,-26,-45,25
32767,3444,-10020,-21,85,16,32767,16206,5978,-30,-30,21
32767,3428,-9956,-2,66,1,32767,16222,6004,-25,-17,16
32767,3502,-9972,-3,24,-21,32767,16242,5914,-31,-10,6
32767,3664,-10024,-24,8,-37,32767,16232,5928,-66,5,-5
32767,3608,-9990,-40,34,-43,32767,16090,5934,-78,18,-19
32767,3406,-9958,-32,65,-42,32767,16098,5958,-79,25,-40
32767,3314,-10048,-7,46,-31,32767,16112,5938,-74,36,-47
32767,3392,-10180,-1,22,-39,32767,16212,5944,-74,56,-34
32767,3578,-10082,-19,27,-38,32767,16102,5960,-70,63,-16
32767,3638,-10004,-27,38,-11,32767,16070,5918,-45,63,-8
32767,3590,-10184,-34,48,9,32767,16056,6020,-22,74,-8
32767,3612,-10180,-46,73,17,32767,16142,5890,-15,72,-4
32767,3588,-10036,-36,100,25,32767,16050,5884,0,66,10
32767,3564,-9956,-9,109,34,32767,16088,5948,9,62,21
32767,3646,-10004,4,105,35,32767,16174,5940,18,54,18
32767,3772,-10044,-1,106,24,32767,16188,5880,9,55,9
32767,3778,-9924,-5,145,13,32767,16066,5836,-19,59,10
32767,3712,-9806,-21,190,-3,32767,16096,5798,-38,72,2
32767,3574,-9800,-28,194,-6,32767,16142,6052,-59,102,-24
32767,3474,-9724,-2,189,-5,32767,16200,6052,-64,109,-44
32767,3422,-9686,16,182,-13,32767,16214,5926,-77,108,-50
32767,3534,-9658,7,197,-35,32767,16150,5948,-89,110,-51
32767,3646,-9612,-22,221,-53,32767,16052,6076,-82,111,-53
32767,3656,-9586,-73,222,-34,32767,15886,6094,-65,111,-49
32767,3406,-9500,-126,243,0,32767,15872,6128,39,94,-52
32767,3156,-9242,-106,257,14,32767,16168,6150,80,83,-39
32767,3232,-9176,-42,235,-2,32767,16336,6288,89,64,-25
32767,3578,-9070,-27,207,-18,32767,16398,6322,68,51,-20
32767,3732,-9064,-52,187,-22,32767,16434,6266,46,33,-20
32767,3780,-8948,-51,172,-14,32767,16518,6238,27,18,-19
32767,3800,-8944,-32,163,-6,32767,16566,6104,3,17,-18
32767,3816,-8834,-17,179,-8,32767,16374,5940,-60,9,-7
32767,3850,-8916,-13,185,-19,32767,16248,5944,-100,7,2
32767,3880,-8806,-31,182,-35,32767,16066,6040,-119,17,2
32767,3882,-8650,-47,173,-39,32767,16016,6108,-118,38,-8
32767,3808,-8666,-33,139,-22,32767,16172,6044,-93,50,-28
32767,3832,-8664,-17,101,-10,32767,16366,5896,-89,54,-31
32767,3854,-8652,-12,96,-16,32767,16334,5858,-115,53,-21
32767,3980,-8604,-35,93,-35,32767,16258,5976,-115,64,-7
32767,4026,-8576,-62,65,-26,32767,16148,5888,-101,57,7
32767,3818,-8618,-85,43,8,32767,16058,5978,-93,52,22
32767,3716,-8652,-92,49,41,32767,16132,5956,-85,33,27
32767,3600,-8626,-76,71,59,32767,16018,5880,-106,19,28
32767,3704,-8722,-50,83,67,32767,15860,5800,-124,6,21
32767,3734,-8590,-32,59,62,32767,15778,5780,-116,13,13
32767,3834,-8642,8,37,60,32767,15650,5824,-114,24,0
32767,3946,-8890,32,-5,38,32767,15592,5682,-98,44,-18
32767,3982,-8926,-11,-20,3,32767,15586,5676,-90,57,-33
32767,3922,-8962,-55,7,-7,32767,15534,5700,-90,70,-56
32767,3624,-8914,-88,29,-15,32767,15480,5754,-79,90,-77
32767,3408,-8944,-107,29,-35,32767,15598,5810,-52,109,-95
32767,3364,-8990,-107,29,-27,32767,15772,5860,-45,129,-90
32767,3192,-8978,-87,25,-7,32767,15896,5810,-56,143,-87
32767,3234,-9016,-67,25,-6,32767,15854,6008,-71,149,-84
32767,3248,-9070,-63,47,-4,32767,15710,5876,-42,148,-92
32767,3438,-9100,-79,65,24,32767,15770,5806,-7,142,-91
32767,3390,-9124,-98,97,51,32767,15988,5758,1,132,-70
32767,3372,-9110,-94,135,63,32767,16008,5636,2,119,-52
32767,3362,-9190,-58,154,61,32767,16016,5604,7,104,-37
32767,3560,-9222,-49,144,38,32767,15958,5676,14,99,-18
32767,3696,-9270,-69,131,31,32767,15928,5582,28,95,-13
32767,3740,-9114,-80,145,39,32767,15978,5540,29,102,-7
32767,3758,-8924,-73,186,35,32767,15998,5676,29,119,8
32767,3792,-8894,-23,241,9,32767,15958,5682,24,119,12
32767,3842,-8880,-16,244,-10,32767,16020,5646,10,121,5
32767,3862,-8636,-21,231,-10,32712,16034,5652,-16,119,-3
32767,3836,-8436,-9,245,-8,32686,15974,5740,-52,111,-4
32767,3820,-8344,23,279,-22,32767,15798,5790,-75,103,-6
32767,3832,-8346,39,278,-33,32767,15652,5898,-70,97,-20
32767,3848,-8156,13,234,-33,32674,15724,5850,-45,82,-38
32767,3812,-7876,-26,194,-17,32502,15712,5754,-32,59,-37
32767,3644,-7800,-17,187,-4,32476,15644,5824,-18,50,-41
32767,3618,-7804,-22,195,-16,32466,15588,5900,0,36,-45
32767,3604,-7776,-51,203,-20,32714,15650,5840,30,28,-50
32767,3564,-7586,-56,194,-4,32686,15816,5680,56,27,-52
32767,3564,-7574,-53,177,-3,32528,15918,5554,45,26,-46
32767,3578,-7492,-62,163,-18,32686,15854,5672,10,37,-29
32767,3630,-7518,-81,166,-29,32767,15822,5704,-1,55,-10
32767,3518,-7400,-80,180,-23,32767,16008,5536,22,53,-26
32767,3392,-7424,-47,159,-18,32242,16188,5434,5,42,-31
32767,3516,-7480,-11,144,-27,31978,16020,5432,-37,26,-19
32767,3752,-7318,-7,141,-35,31932,15890,5400,-54,10,-7
32767,3840,-7186,-34,127,-34,32180,15696,5648,-37,1,2
32767,3816,-7446,-43,112,-27,32340,15658,5930,-8,-2,6
32767,3646,-7640,-46,87,-22,32524,15660,5898,24,-14,-3
32767,3604,-7398,-54,53,-17,32576,15860,5842,68,-23,-17
32767,3764,-7086,-39,37,-9,32438,15976,5798,72,-36,-18
32767,3960,-7100,-13,60,-9,32328,16028,5820,51,-53,-14
32767,3942,-7164,-4,83,-12,32530,16084,5784,12,-68,-21
32767,3994,-7196,-18,85,-21,32670,16042,5716,-13,-77,-28
32767,3952,-7292,-40,77,-14,32767,15946,5780,-47,-88,-34
32767,3782,-7216,-56,75,-10,32767,15862,5818,-47,-83,-35
32767,3622,-7220,-62,76,-14,32767,15938,5742,-26,-70,-37
32767,3622,-7224,-59,64,-19,32728,16110,5538,-2,-62,-41
32767,3628,-7188,-52,41,-14,32732,16260,5538,-6,-58,-45
32767,3620,-7282,-39,21,-10,32767,16236,5432,-30,-45,-46
32767,3638,-7338,-39,21,-10,32767,15960,5606,-50,-36,-51
32767,3750,-7384,-42,17,-7,32767,15764,5628,-34,-26,-60
32767,3828,-7480,-56,-11,-4,32678,16156,5562,24,-16,-74
32767,3846,-7638,-79,-31,0,32544,16588,5492,14,-20,-50
32767,3800,-7600,-78,-27,13,32638,16778,5490,-42,-15,-18
32767,3732,-7668,-57,-23,18,32618,16582,5802,-96,-25,11
32767,3930,-7650,-34,-18,25,32490,16228,5848,-131,-51,15
32767,4214,-7822,-55,-3,47,32504,15858,5740,-137,-73,11
32767,4214,-7902,-92,11,90,32604,15702,5804,-121,-75,33
32767,4004,-8034,-107,50,140,32767,15610,5776,-74,-67,56
32767,3756,-7914,-63,108,152,32767,15314,5854,-48,-82,40
32767,3844,-7706,17,131,118,32670,15132,5772,-12,-94,11
32767,4050,-7664,30,129,76,32596,15302,5668,44,-93,-6
32767,4056,-7582,-37,118,50,32604,15570,5648,64,-86,-6
32767,3750,-7604,-63,129,31,32744,15734,5762,60,-83,-7
32767,3602,-7410,-28,161,-4,32750,15896,5658,62,-88,-25
32767,3482,-7350,-24,183,-50,32588,16050,5572,54,-96,-33
32767,3390,-7314,-71,161,-67,32578,15992,5642,26,-104,-24
32767,3228,-7188,-82,143,-49,32726,15958,5808,22,-100,-15
32767,3136,-7110,-63,161,-25,32767,15912,5716,37,-97,-19
32767,3098,-6864,-32,199,-12,32767,16014,5546,49,-100,-28
32767,3150,-6882,-6,186,-1,32767,16100,5520,52,-101,-21
32767,3266,-6912,-4,145,10,32767,16170,5550,44,-92,0
32767,3356,-6892,-18,128,14,32767,16258,5618,43,-82,5
32767,3530,-6826,-5,141,0,32767,16262,5592,39,-78,4
32767,3756,-6794,-2,135,-18,32767,16248,5682,0,-76,9
32767,3782,-6896,-18,112,-24,32767,16108,5804,-21,-67,13
32767,3732,-6976,-35,107,-23,32767,15982,5932,-9,-51,16
32767,3658,-6804,-40,112,-26,32767,16094,5978,25,-47,17
32767,3624,-6706,-25,95,-25,32686,16242,5888,40,-53,17
32767,3656,-6794,4,61,-22,32676,16326,5818,18,-66,21
32767,3818,-6788,10,44,-21,32767,16220,5820,1,-77,21
32767,3874,-6830,5,49,-10,32767,16170,5808,-2,-76,13
32767,3832,-6830,-8,52,-9,32767,16260,5898,-3,-77,1
32767,3780,-6800,-25,32,-1,32767,16398,5938,-22,-73,-1
32767,3620,-6794,-12,0,14,32767,16306,5792,-46,-60,-9
32767,3652,-6838,7,-12,2,32767,16150,5776,-61,-61,-27
32767,3766,-6816,14,0,-17,32638,15966,5936,-62,-73,-38
32767,3896,-6854,3,4,-21,32602,16096,5882,-37,-75,-32
32767,3818,-6958,-23,1,-10,32682,16460,5856,-20,-81,-17
32767,3684,-6990,-24,14,3,32767,16484,5742,-62,-127,8
32767,3692,-6944,-1,20,-2,32767,16190,5812,-75,-136,22
32767,3888,-6940,-15,12,-13,32767,16032,5840,-55,-137,36
32767,4018,-6932,-67,-5,-4,32767,15982,5756,-22,-134,43
32767,3906,-6990,-88,1,37,32767,16056,5598,-5,-133,47
32767,3730,-6990,-50,37,69,32767,16134,5544,-17,-138,60
32767,3744,-6928,14,91,68,32767,15936,5544,-23,-119,71
32767,3980,-6962,45,108,50,32767,15902,5624,-14,-101,70
32767,4268,-6902,12,88,36,32767,15834,5596,-9,-87,57
32767,4156,-6800,-31,92,26,32767,15930,5496,0,-73,40
32767,3892,-6912,-57,103,7,32767,15962,5476,-2,-43,35
32767,3680,-6978,-61,109,-17,32767,16052,5536,-15,-16,26
32767,3460,-6928,-52,108,-28,32767,16080,5616,-29,12,1
32767,3250,-6848,-32,84,-33,32767,16054,5624,-32,7,-16
32767,3232,-6842,2,55,-35,32767,16120,5558,-22,1,-28
32767,3242,-6914,39,41,-33,32767,16124,5538,-15,6,-23
32767,3364,-6928,50,19,-35,32767,16248,5660,0,18,-8
32767,3456,-6890,26,-3,-26,32767,16204,6046,59,32,13
32767,3414,-6752,18,1,-13,32767,16350,5960,101,22,16
32767,3418,-6790,19,4,-12,32767,16478,6008,117,10,25
32767,3464,-6822,2,-11,-14,32767,16546,6110,102,13,35
32767,3578,-6908,-24,-21,-1,32767,16530,6160,73,12,36
32767,3634,-6914,-35,-9,10,32767,16550,6222,50,-3,32
32767,3710,-6752,-13,10,6,32767,16542,6190,32,-24,25
32767,3796,-6838,15,21,-6,32638,16632,6050,5,-50,17
32767,3934,-6838,13,12,-21,32698,16698,6086,-38,-77,16
32767,4024,-6898,22,-5,-25,32750,16518,6058,-71,-88,24
32767,4076,-6830,41,-7,-36,32767,16370,6020,-73,-96,18
32767,4206,-6796,43,10,-50,32767,16318,5948,-46,-102,18
32767,4254,-6892,22,31,-59,32767,16324,5884,-15,-101,24
32767,4168,-6860,3,40,-53,32767,16458,5882,17,-93,29
32767,4080,-6886,-12,34,-42,32767,16584,5722,39,-81,37
32767,4026,-6826,-15,34,-36,32767,16712,5698,35,-66,43
32767,4102,-6744,2,53,-24,32767,16638,5792,0,-72,40
32767,4206,-6726,7,77,-15,32767,16492,5824,-16,-77,34
32767,4284,-6748,7,95,-7,32767,16460,5892,-11,-81,27
32767,4218,-6816,-3,106,0,32767,16542,5758,10,-75,30
32767,4148,-6860,-13,115,3,32767,16700,5778,7,-64,38
32767,4122,-6788,-9,111,2,32767,16782,5896,-9,-66,41
32767,4090,-6780,4,106,2,32767,16592,5892,-31,-75,42
32767,4112,-6650,14,101,-4,32767,16344,5748,-25,-78,33
32767,4164,-6626,24,86,-6,32767,16400,5654,-1,-68,35
32767,4102,-6742,21,74,-6,32767,16538,5692,12,-58,36
32767,4108,-6678,-2,69,-5,32767,16608,5822,-4,-48,35
32767,3996,-6590,-11,70,1,32767,16608,5950,-33,-33,33
32767,4050,-6584,11,79,5,32767,16590,5892,-42,-32,16
32767,4156,-6494,28,90,-6,32758,16642,5802,-46,-36,5
32767,4172,-6560,29,78,-11,32592,16668,5898,-57,-43,-1
32767,4172,-6484,8,59,-9,32682,16596,6056,-95,-61,2
32767,4160,-6440,4,66,-12,32767,16344,6050,-79,-78,-7
32767,4230,-6418,16,108,-15,32767,16298,6038,-37,-81,-9
32767,4240,-6402,9,140,-13,32767,16314,6018,-7,-93,-11
32767,4196,-6384,-18,136,1,32694,16348,6048,10,-113,-17
32767,3996,-6440,-22,123,23,32676,16340,5912,23,-128,-18
32767,3960,-6426,-19,118,32,32767,16374,6056,38,-132,-21
32767,4064,-6354,-24,142,30,32767,16502,6004,48,-126,-29
32767,4146,-6274,-22,191,26,32767,16746,5852,38,-129,-37
32767,4198,-6210,-34,221,7,32767,16834,5790,-2,-139,-35
32767,4118,-6210,-55,215,-4,32767,16850,5836,-49,-140,-32
32767,4012,-6074,-61,230,-9,32767,16690,5824,-89,-142,-35
32767,3962,-5988,-44,258,-15,32767,16482,5986,-118,-150,-39
32767,3976,-5878,-30,274,-36,32767,16376,5854,-122,-161,-51
32767,4086,-5830,-51,285,-53,32767,16434,5644,-106,-165,-57
32767,4126,-5822,-68,303,-44,32767,16358,5732,-92,-162,-42
32767,4038,-5814,-59,331,-29,32767,16260,5684,-64,-136,-25
32767,4058,-5762,-51,359,-36,32767,16366,5918,-35,-108,-14
32767,4228,-5620,-57,375,-51,32767,16414,6090,-20,-100,-18
32767,4276,-5530,-86,388,-56,32767,16392,5888,-31,-121,-36
32767,4280,-5454,-121,412,-55,32767,16400,5638,-35,-135,-47
32767,4182,-5608,-131,447,-55,32767,16514,5752,-37,-126,-32
32767,4076,-5536,-123,485,-55,32767,16478,5826,-47,-119,-17
32767,4098,-5392,-106,512,-57,32767,16396,5778,-75,-126,-17
32767,4118,-5266,-97,519,-59,32767,16370,5856,-102,-99,-25
32767,4160,-5154,-104,521,-59,32767,16204,6054,-118,-115,-43
32767,4184,-5058,-111,561,-71,32767,15892,6314,-116,-153,-68
32767,4134,-5038,-108,600,-87,32767,15528,6634,-88,-187,-105
32767,4222,-4922,-115,639,-103,32767,15380,6394,-19,-255,-142
32767,4156,-4684,-132,685,-103,32767,15602,6056,89,-297,-161
32767,4058,-4610,-130,732,-98,32767,15998,5932,190,-277,-145
32767,3986,-4452,-123,764,-117,32767,16544,6110,251,-261,-107
32767,4068,-4380,-124,800,-150,32767,16856,6152,279,-265,-76
32767,4180,-4220,-125,857,-167,32767,16876,6198,281,-273,-67
32767,4212,-4064,-129,955,-170,32767,16986,5854,250,-256,-69
32767,4178,-3848,-152,1009,-175,32767,17102,5652,249,-212,-56
32767,4144,-3664,-181,1069,-183,32767,17310,5724,235,-143,-25
32767,4070,-3422,-199,1155,-175,32767,17380,5944,191,-139,-5
32767,4012,-3196,-238,1231,-168,32767,17146,6030,146,-141,-3
32767,3824,-2566,-195,1293,-159,32767,16992,6040,120,-134,-24
32767,3938,-2152,-72,1312,-161,32767,17034,5956,112,-130,-43
32767,4210,-1986,-49,1311,-202,32767,17200,6056,112,-129,-31
32767,4676,-1414,-17,1329,-236,32767,17224,6022,92,-134,-33
32767,4910,-1040,1,1348,-250,32767,17296,5628,64,-122,-45
32767,4940,-860,-17,1356,-271,32767,17582,5566,67,-49,-30
32767,4830,-564,-12,1345,-270,32767,17606,5904,45,-2,-11
32767,4776,-178,13,1287,-254,32767,17410,6152,9,-19,-6
32767,4876,48,24,1232,-246,32767,17170,5938,3,-26,-20
32767,4956,408,22,1220,-242,32767,17026,5862,36,4,-30
32767,5060,614,45,1209,-241,32767,17210,5852,119,43,-12
32767,5210,796,44,1195,-204,32767,17446,6086,171,74,18
32767,5040,956,56,1175,-158,32767,17544,6298,158,64,30
32767,4914,1236,92,1153,-141,32767,17498,6426,124,46,26
32767,5092,1330,129,1120,-123,32767,17326,6706,120,24,12
32767,5242,1504,164,1084,-87,32767,17416,6526,157,-18,-13
32767,5338,1570,183,1039,-76,32767,17798,6200,178,-11,-10
32767,5602,1760,187,1009,-108,32767,18264,6314,163,14,17
32767,5798,1962,131,978,-132,32767,18448,6380,86,10,35
32767,5728,1998,76,969,-115,32767,18436,6498,-11,-11,36
32767,5460,2350,87,931,-107,32767,18094,6338,-93,-62,29
32767,5408,2700,140,881,-131,32767,17766,6110,-121,-67,34
32767,5674,2966,160,850,-144,32767,17606,5992,-129,-51,33
32767,5830,3030,146,854,-139,32767,17600,6288,-93,-27,33
32767,6018,3104,102,887,-132,32767,17512,6654,-52,-32,35
32767,6132,3050,64,940,-131,32767,17374,6100,-52,-77,16
32396,6288,3232,58,967,-133,32767,17368,5842,-50,-55,14
32088,6262,3542,48,953,-132,32767,17416,6204,10,-4,28
32146,6142,3774,50,956,-137,32767,17734,6082,60,-9,24
32078,6150,3588,29,988,-151,32767,18022,6172,57,-13,32
31778,6122,3520,1,1030,-159,32767,17906,6324,20,-30,30
31134,6128,3608,-4,1066,-175,32767,17840,5836,-43,-58,20
30602,6188,3838,-4,1075,-181,32767,17758,5606,-48,-30,48
30476,6178,3978,-15,1059,-166,32767,17642,5928,-49,31,55
30340,6250,3958,-24,1058,-157,32767,17526,6158,-53,43,41
29940,6240,3850,-53,1079,-182,32767,17438,6102,-52,29,30
29598,6194,4156,-136,1079,-189,32767,17414,5984,-37,27,31
29640,5888,4372,-154,1089,-163,32767,17492,6060,-2,39,39
29396,5504,4176,-119,1123,-167,32767,17574,6292,31,33,36
28654,5620,4266,-51,1142,-214,32767,17614,6312,47,19,32
27982,5894,4724,-17,1115,-215,32767,17622,6052,34,17,22
27760,5882,4702,31,1078,-180,32767,17634,5832,24,28,29
27546,5956,4568,39,1044,-190,32767,17614,5958,29,51,42
27494,6040,4568,23,999,-192,32767,17716,6286,47,53,54
27278,6092,4812,43,986,-185,32767,17810,6416,46,30,51
27102,6180,4954,20,988,-199,32767,17778,6196,27,9,29
26824,6248,5070,-7,967,-199,32767,17876,5916,11,7,21
26442,6178,5138,-20,937,-194,32767,18004,6002,12,21,34
26178,6116,5384,-19,905,-192,32767,18016,6312,-4,21,41
26066,6110,5418,4,876,-184,32767,17818,6430,-29,5,30
25870,6002,5212,47,862,-190,32767,17652,6310,-40,-17,25
25522,6080,5360,57,830,-189,32767,17634,6316,-6,-20,29
25126,6224,5436,63,758,-151,32767,17602,6500,32,-29,26
25032,6354,5682,71,717,-149,32767,17678,6192,36,-45,8
25174,6582,5754,43,686,-157,32767,17928,5854,47,-39,8
25152,6690,5606,-7,689,-152,32767,18080,5942,52,-20,19
24690,6512,5394,-36,685,-162,32767,18188,6132,18,-22,25
24034,6346,5450,-54,650,-166,32767,18104,6160,-26,-23,21
23872,6294,5654,-55,609,-157,32767,17830,6090,-70,-46,12
23942,6276,5702,-54,575,-158,32767,17812,5952,-55,-49,18
24052,6188,5640,-41,564,-163,32767,17862,6060,-36,-45,21
23972,6186,5466,-37,567,-163,32767,17760,6312,-23,-41,13
23794,6280,5644,-36,568,-164,32767,17808,6162,-12,-56,11
23642,6300,5478,-40,567,-168,32767,17780,5872,6,-57,22
23486,6306,5372,-48,543,-162,32767,17864,5700,16,-46,17
23404,6200,5334,-48,509,-145,32767,17978,5914,14,-38,21
23216,6196,5244,-31,495,-150,32767,17964,6040,1,-40,21
23040,6330,5292,-40,483,-157,32767,17908,6002,-28,-26,13
22984,6334,5390,-53,467,-145,32767,17764,5970,-21,-19,18
22984,6222,5232,-41,466,-147,32767,17768,5944,2,-18,22
22754,6138,5116,-22,463,-146,32767,17864,6178,11,-14,20
22486,6096,5236,2,445,-134,32767,17896,6218,3,-33,10
22402,6202,5360,25,436,-124,32767,17860,6096,7,-36,17
22426,6502,5246,12,428,-126,32767,17862,6106,25,-33,20
22536,6500,5088,-21,420,-125,32767,17896,6154,28,-25,13
22260,6332,4860,-36,420,-125,32767,18004,6214,14,-17,13
21872,6292,4996,-53,407,-115,32767,18048,6204,4,-28,17
21844,6158,5092,-45,363,-102,32767,18006,6224,8,-49,25
21874,6090,4986,-43,340,-94,32767,17944,6140,4,-54,26
21780,5966,4996,-16,311,-82,32767,18002,6042,19,-40,22
21710,6002,4994,10,292,-77,32767,18104,6130,35,-45,25
21656,6110,5140,21,268,-65,32767,18186,6154,28,-57,31
21586,6322,5322,29,260,-52,32767,18074,6232,16,-61,34
21624,6472,5088,3,257,-61,32767,18120,6340,17,-70,35
21528,6512,5078,-40,248,-59,32767,18172,6274,19,-77,33
21472,6148,5006,-71,226,-51,32767,18180,6154,14,-86,40
21444,6042,5262,-64,216,-46,32767,18250,6248,-3,-92,43
21400,6036,5264,-33,210,-39,32767,18326,6080,-53,-100,42
21274,6136,5202,-16,204,-48,32767,18342,5948,-80,-105,39
21184,6188,5048,-4,184,-39,32767,18308,5854,-84,-100,41
21086,6062,5016,26,167,-27,32767,18206,6038,-92,-74,46
21114,6312,5056,36,157,-23,32767,17918,6120,-95,-66,42
21250,6436,5134,21,154,-25,32767,17642,6186,-73,-56,31
21366,6440,4970,-22,174,-39,32767,17566,6168,-17,-53,17
21194,6404,5056,-53,185,-50,32767,17730,5840,36,-42,15
21142,6308,4880,-75,195,-54,32767,17950,6024,72,-9,12
21128,6402,4842,-102,214,-59,32767,18146,6152,59,3,7
20994,6612,4772,-149,246,-72,32767,18206,6032,41,-9,7
21208,6672,4548,-227,302,-91,32767,18178,6012,33,-3,6
21200,6118,4248,-261,346,-107,32767,18200,6010,23,0,-9
20650,5424,4578,-214,363,-107,32767,18080,6156,7,6,-15
20320,5344,4508,-69,332,-75,32767,17954,6368,13,2,-12
20632,5606,4614,-21,313,-81,32767,18064,6400,42,-3,-16
20754,5778,4638,-12,322,-77,32767,18154,6374,56,-19,-20
20756,5876,4518,-29,344,-73,32767,18330,6300,64,-35,-14
20470,5816,4578,-54,352,-76,32767,18496,6220,54,-47,-9
20194,5734,4764,-64,338,-72,32767,18620,6284,19,-52,-8
19926,5678,4858,-58,307,-63,32767,18612,6342,-40,-70,-7
19980,5646,4870,-41,264,-50,32767,18382,6374,-79,-81,-12
20010,5634,4732,-10,226,-39,32767,18176,6226,-81,-81,-23
19756,5636,4946,43,173,-24,32767,18140,6088,-44,-61,-21
19644,5690,5044,81,121,-11,32767,18206,6164,-27,-54,-15
19604,5792,5190,107,84,-1,32767,18252,6140,-16,-57,-4
19686,6134,5216,97,67,3,32767,18250,6110,-17,-64,-8
19708,6320,5084,58,51,0,32767,18324,6146,-14,-66,-9
19732,6262,5176,16,41,3,32767,18312,6210,-11,-60,-4
19720,6200,5172,11,19,9,32767,18302,6190,-9,-56,0
19670,6180,4990,11,8,6,32767,18368,6056,-9,-65,2
19658,6166,4854,-3,-9,1,32767,18410,6052,-24,-61,3
19718,6144,4866,-18,-22,4,32767,18370,6216,-34,-56,5
19814,6100,4670,-10,-39,16,32767,18212,6228,-35,-65,2
19832,6144,4692,-2,-53,24,32767,18098,6124,-27,-63,6
19942,6162,4792,1,-63,25,32767,18208,5996,25,-42,8
20072,6254,4702,-6,-62,26,32767,18440,6080,32,-27,0
20042,6208,4596,-17,-62,26,32767,18454,6274,12,-37,5
20010,6158,4598,-21,-66,40,32767,18268,6380,2,-51,16
20242,6126,4634,-18,-69,41,32767,18394,6188,12,-62,17
20284,6114,4558,0,-61,40,32767,18470,6336,13,-64,15
20180,6192,4626,6,-57,42,32767,18458,6318,-7,-76,13
20192,6188,4614,9,-56,49,32767,18370,6134,-29,-80,15
20266,6208,4536,4,-57,51,32767,18400,6238,-22,-72,12
20300,6154,4608,15,-46,47,32767,18512,6174,-11,-72,6
20332,6204,4610,22,-39,47,32767,18474,6082,-27,-75,4
20328,6184,4684,19,-42,51,32767,18486,6144,-42,-69,10
20338,6216,4606,21,-50,58,32767,18294,6298,-49,-77,12
20420,6326,4708,-5,-52,54,32767,18124,6264,-40,-91,5
20382,6358,4758,-24,-37,46,32767,18240,6026,6,-92,4
20252,6168,4710,-13,-22,40,32767,18418,6026,23,-80,8
20168,6086,4798,15,-27,49,32767,18376,6140,-5,-78,3
20292,6178,4812,46,-24,49,32767,18318,6204,-17,-76,-6
20402,6400,4822,46,-12,41,32767,18200,6080,-5,-78,-5
20438,6584,4726,12,-4,36,32767,18366,6100,30,-65,2
20474,6480,4844,-39,-4,34,32767,18526,6082,33,-60,-1
20360,6304,4820,-54,-2,32,32767,18594,6158,7,-65,2
20292,6160,4736,-41,-11,31,32767,18452,6244,-16,-70,-2
20180,6158,4686,-29,-16,31,32767,18242,6268,-5,-80,-8
20278,6144,4924,-17,-26,27,32767,18210,6238,47,-77,0
20376,5996,4814,-4,-34,33,32767,18446,6232,80,-74,4
20306,5988,4852,38,-50,44,32767,18796,6218,85,-78,7
20288,6278,4782,68,-50,40,32767,18894,6164,34,-88,3
20370,6550,4764,44,-61,34,32767,18768,6224,-9,-92,2
20530,6524,4808,2,-73,42,32767,18634,6350,-19,-93,4
20558,6388,4710,-4,-74,40,32767,18652,6236,-18,-94,-1
20476,6338,4802,3,-76,51,32767,18696,6066,-45,-84,-15
20424,6246,4886,19,-92,58,32767,18594,6096,-73,-82,-25
20506,6278,4722,37,-106,63,32767,18428,6096,-64,-71,-14
20642,6438,4920,36,-112,63,32767,18362,6264,-39,-71,-5
20720,6520,4870,40,-114,64,32767,18476,6260,-18,-74,-10
20794,6576,4962,31,-107,69,32767,18598,6388,-11,-78,-16
20816,6558,4878,34,-98,76,32767,18560,6380,-12,-89,-13
20850,6510,4870,23,-93,67,32767,18430,6388,-8,-105,-8
20842,6468,4932,20,-100,56,32767,18470,6210,14,-99,-7
20894,6412,5026,31,-101,52,32767,18756,6154,23,-90,-7
20898,6536,4894,35,-93,43,32767,18758,6096,-7,-90,-6
20948,6714,4708,18,-86,33,32767,18704,6076,-44,-90,-5
21064,6754,4634,-16,-83,35,32767,18584,6174,-52,-84,-3
21090,6674,4686,-44,-78,28,32767,18546,6056,-52,-76,-7
21100,6478,4836,-51,-67,18,32767,18552,6124,-52,-75,-10
21102,6454,4858,-39,-54,15,32767,18450,6184,-53,-73,-10
21146,6456,4750,-32,-36,15,32767,18398,6292,-23,-69,4
21192,6458,4840,-21,-17,10,32767,18366,6258,6,-65,2
21128,6566,5000,-5,0,-2,32767,18440,6206,19,-70,4
21142,6514,4884,9,8,0,32767,18646,6234,27,-76,9
21138,6626,4836,25,25,5,32767,18724,6108,4,-85,18
21172,6718,4690,14,28,0,32767,18676,6136,-29,-83,18
21250,6702,4906,-14,33,-4,32767,18648,6150,-45,-81,13
21186,6742,4872,-25,37,-9,32767,18496,6140,-47,-82,11
21090,6674,4728,-28,31,-4,32767,18454,6102,-41,-80,19
21136,6606,4784,-28,22,-3,32767,18292,6242,-24,-74,19
21202,6604,4866,-37,18,1,32767,18250,6484,7,-68,19
21134,6534,4826,-32,18,5,32767,18476,6288,47,-77,22
21130,6608,4806,-21,17,5,32767,18698,6188,69,-85,35
21066,6576,4816,3,12,11,32767,18896,6240,47,-89,38
21196,6744,4938,17,12,23,32767,18808,6112,2,-98,33
21162,6786,4986,12,18,27,32767,18728,6094,-24,-87,35
21076,6788,4936,2,24,23,32767,18598,6258,-30,-73,30
21062,6764,4856,-9,15,27,32767,18600,6220,-15,-74,38
21090,6666,4912,-15,6,32,32767,18666,6248,-14,-74,41
21140,6624,4706,-10,3,32,32767,18664,6310,-7,-72,49
21070,6724,4744,-18,8,29,32767,18684,6286,-4,-63,49
20998,6682,4896,-18,-2,36,32767,18698,6308,-16,-56,44
21248,6542,5150,-1,-19,52,32767,18682,6218,-32,-52,36
21364,6642,5084,33,-10,55,32767,18578,6370,-29,-50,36
21248,6866,4914,33,4,49,32767,18548,6254,-15,-52,34
21018,6970,4892,12,1,46,32767,18724,6158,9,-37,33
20978,6896,4872,-11,-15,50,32767,18884,6112,-1,-32,31
21084,6744,4778,-7,-25,56,32767,18866,6242,-39,-31,25
21200,6712,4858,-4,-29,61,32767,18582,6290,-69,-33,10
21318,6894,4736,-4,-22,63,32767,18610,6440,-42,-22,12
21162,6976,4816,-23,-15,61,32767,18660,6436,-18,-16,6
21094,6838,4840,-44,-16,65,32767,18692,6372,-23,-31,1
21118,6730,4840,-36,-14,65,32767,18740,6060,-45,-44,2
21192,6652,4750,-25,-12,67,32767,18728,6042,-61,-37,6
21324,6686,4778,-19,0,68,32767,18708,6238,-61,-35,6
21306,6724,4744,-21,7,67,32767,18668,6190,-63,-34,1
21288,6720,4876,-33,13,64,32767,18528,6108,-83,-31,-5
21304,6714,4840,-32,13,64,32767,18470,6070,-77,-34,1
21262,6782,4800,-46,18,56,32767,18466,6082,-55,-22,5
21230,6766,4664,-71,24,44,32767,18518,6296,-22,-20,11
20978,6602,4842,-78,27,39,32767,18548,6408,-13,-20,12
21136,6448,4932,-58,14,39,32767,18574,6232,-12,-26,16
21360,6500,5018,-26,15,36,32767,18772,6138,0,-25,19
21378,6674,5090,-10,40,25,32767,18892,6026,-14,-23,19
21372,6908,4904,-27,45,16,32767,18818,6152,-79,-23,10
21272,6886,5040,-62,46,11,32767,18570,6170,-94,-26,7
21182,6610,4952,-69,46,12,32767,18428,6132,-67,-20,9
21102,6538,4896,-50,36,7,32767,18406,6146,-26,-7,20
21194,6696,4890,-37,28,10,32767,18426,6200,2,-1,14
21284,6832,4810,-48,28,14,32767,18622,6332,24,-7,11
21150,6748,4714,-66,29,14,32767,18738,6436,34,-18,17
21040,6518,4706,-56,25,21,32767,18800,6308,21,-30,23
21070,6492,4860,-20,25,25,32767,18862,6242,6,-34,20
21286,6678,5072,5,26,27,32767,18768,6138,-24,-35,13
21380,6884,4908,-1,39,26,32767,18750,6222,-45,-38,8
21240,7042,4722,-41,61,21,32767,18802,6100,-56,-29,3
21156,6896,4742,-72,64,15,32767,18668,6068,-70,-22,1
21170,6636,4758,-83,53,16,32767,18534,6034,-68,-15,6
21208,6480,4774,-57,50,20,32767,18462,6204,-50,-15,6
21126,6648,4762,-23,48,22,32767,18418,6266,-30,-24,-7
21220,6814,4770,-26,43,26,32767,18392,6022,-20,-13,-13
21272,6824,4940,-39,45,33,32767,18444,6076,8,0,-7
21276,6630,5044,-34,62,38,32767,18504,6164,49,9,-7
21052,6748,5086,-9,63,27,32767,18716,6240,74,8,-9
21042,6810,5030,-9,50,28,32767,18896,6398,55,3,-11
21128,6822,4986,-20,50,28,32767,18958,6316,17,-8,-14
20984,6852,5058,-32,42,27,32767,18990,6366,-3,-23,-10
21012,6758,4990,-44,24,32,32767,18948,6336,-32,-38,-8
20928,6802,4932,-51,-6,37,32767,18872,6332,-53,-46,-7
21008,6658,5028,-56,-35,48,32767,18758,6476,-71,-49,-4
20986,6634,5016,-47,-58,58,32767,18692,6536,-60,-64,-5
20960,6506,5132,-33,-84,66,32767,18672,6358,-38,-78,-7
20950,6510,5124,-6,-127,79,32767,18740,6120,-40,-81,-16
21030,6524,5162,6,-173,94,32767,18892,6032,-49,-80,-10
21092,6538,5210,34,-209,109,32767,18864,6162,-59,-70,-9
21108,6646,5150,64,-236,127,32767,18784,6408,-64,-64,-13
21208,6802,5184,81,-260,137,32767,18526,6340,-72,-79,-23
21390,7006,5340,74,-279,138,32767,18408,6084,-66,-98,-25
21516,7130,5326,48,-298,141,32767,18460,5912,-31,-96,-19
21706,7128,5152,22,-296,134,32767,18586,5922,0,-72,-12
21684,6796,5044,33,-283,127,32767,18702,6068,-5,-50,-15
21706,6780,5154,59,-271,130,32767,18754,6226,-29,-38,-27
21982,7034,5132,69,-249,120,32767,18544,6146,-55,-59,-28
22380,7302,5024,32,-220,102,32767,18504,6096,-29,-55,-25
22540,7356,4816,-22,-177,83,32767,18602,6238,-19,-40,-30
22348,7196,4792,-68,-138,63,32767,18656,6298,-18,-39,-28
22148,6814,4892,-79,-120,51,32767,18672,6400,-18,-48,-28
22202,6578,4926,-49,-114,44,32767,18664,6276,-21,-60,-26
22488,6746,4860,5,-86,31,32767,18678,6116,-16,-69,-26
22528,7078,4830,1,-50,17,32767,18784,5974,-15,-63,-21
22496,7074,4870,-22,-34,10,32767,18734,6168,-37,-43,-28
22348,6916,4946,-28,-18,11,32767,18654,6150,-60,-36,-39
22186,6874,4918,-1,-11,9,32767,18476,6198,-70,-36,-42
22352,6908,4956,-5,-26,10,32767,18326,6312,-42,-47,-31
22546,6952,5020,-22,-30,12,32767,18354,6144,-12,-38,-34
22602,6960,4970,-39,-23,2,32767,18600,6130,19,-33,-39
22460,6946,5004,-50,-11,-3,32767,18692,6018,9,-35,-36
22232,6850,4976,-31,-14,3,32767,18686,6090,-14,-28,-29
22258,6868,5088,-6,-21,8,32767,18620,6164,-22,-30,-37
22476,6976,5178,6,-22,7,32767,18534,6064,-23,-36,-43
22672,7126,5134,-7,-10,1,32767,18442,6024,-20,-23,-39
22644,7220,5176,-27,3,-5,32767,18460,6082,8,-8,-37
22462,7106,5058,-45,6,-9,32767,18588,6268,23,1,-39
22308,6930,5028,-50,-11,-6,32767,18730,6264,12,-19,-46
22376,6806,5014,-21,-36,5,32767,18762,6326,-7,-28,-38
22470,6940,5108,-7,-49,11,32767,18724,6400,-21,-42,-33
22494,7088,5264,-3,-53,15,32767,18714,6412,-24,-62,-33
22460,7100,5178,-11,-67,20,32767,18702,6122,-26,-69,-46
22464,7062,5250,-5,-88,34,32767,18782,5984,-42,-59,-45
22438,6976,5298,8,-101,49,32767,18686,6174,-41,-48,-34
22390,7034,5238,8,-131,57,32767,18628,6214,-41,-50,-32
22370,7056,5316,16,-177,71,32767,18608,6108,-23,-66,-32
22514,7000,5334,19,-236,94,32767,18658,5994,-34,-68,-35
22454,7010,5412,25,-293,111,32767,18680,5926,-36,-60,-39
22606,7096,5532,37,-347,137,32767,18680,6070,-29,-56,-34
22700,7190,5598,40,-393,159,32767,18602,6138,-37,-50,-34
22782,7252,5666,38,-435,170,32767,18516,6136,-38,-47,-39
22914,7242,5716,35,-478,185,32767,18582,6210,-19,-35,-49
23094,7312,5756,33,-515,201,32767,18726,6456,4,-28,-52
23302,7440,5634,30,-544,204,32767,18738,6478,-2,-42,-56
23530,7406,5390,15,-569,214,32767,18712,6434,-18,-68,-59
23634,7272,5442,2,-620,235,32767,18704,6210,-37,-76,-50
23796,7252,5526,5,-667,248,32767,18740,6316,-18,-73,-41
24040,7342,5544,13,-701,255,32767,18758,6320,-21,-81,-43
24262,7484,5438,-1,-722,264,32767,18828,6228,-48,-82,-45
24496,7538,5256,-31,-740,276,32767,18750,6162,-67,-83,-39
24550,7486,5206,-60,-763,278,32767,18660,6100,-72,-76,-43
24740,7362,5332,-92,-802,280,32767,18718,6148,-70,-69,-43
25038,7322,5264,-110,-835,282,32767,18702,6288,-69,-69,-35
25516,7376,5058,-171,-859,277,32767,18744,6270,-94,-76,-36
25774,7088,5006,-212,-874,280,32767,18672,6322,-105,-70,-38
26068,6910,5144,-212,-895,269,32767,18658,6444,-97,-71,-32
26374,6880,5170,-199,-901,254,32767,18668,6304,-100,-86,-24
26654,6938,5278,-182,-897,248,32767,18698,6134,-97,-99,-20
26948,6922,5120,-195,-898,242,32767,18708,5930,-106,-86,-5
27218,6794,5064,-193,-900,237,32767,18582,6314,-113,-78,6
27348,6790,5026,-174,-899,227,32767,18430,6224,-114,-81,2
27554,6914,4894,-152,-899,217,32767,18496,6260,-96,-76,3
27862,6942,4960,-174,-911,217,32767,18544,6198,-78,-83,19
28128,6850,4832,-206,-929,226,32767,18546,6192,-100,-76,28
28376,6728,4772,-217,-940,229,32767,18220,6370,-101,-76,29
28544,6766,4742,-228,-944,223,32767,18158,6010,-94,-97,21
28756,6672,4682,-240,-949,224,32767,18008,6126,-82,-72,13
29004,6566,4544,-245,-960,236,32767,18076,6248,-53,-48,-3
29266,6444,4554,-247,-978,247,32767,18246,6080,-38,-51,-7
29768,6310,4408,-236,-985,242,32767,18336,6476,-83,-63,-4
30002,6222,4174,-229,-983,230,32767,18162,6326,-108,-85,-13
30094,6226,4038,-222,-981,215,32767,18250,5942,-111,-83,-15
30196,6250,4032,-230,-1003,209,32767,18350,6002,-111,-40,4
30590,6130,4012,-241,-1030,223,32767,18444,6282,-111,-34,18
31082,5840,3684,-237,-1030,228,32767,18384,6296,-169,-57,21
31248,5660,3568,-205,-1023,202,32767,18086,6568,-193,-77,28
31314,5532,3476,-130,-1033,174,32767,17954,6406,-172,-108,25
31638,5596,3338,-91,-1045,154,32767,17938,6146,-147,-89,17
32012,5536,3242,-98,-1058,167,32767,18048,6360,-110,-55,29
32396,5408,2880,-100,-1057,174,32767,18190,6628,-110,-75,50
32736,5410,2788,-104,-1044,177,32767,18010,6892,-173,-135,36
32767,5284,2560,-87,-1030,180,32767,17418,5976,-215,-211,-13
32767,5380,2422,-65,-1022,170,32767,17500,5780,-115,-136,-23
32767,5466,2430,-69,-1016,171,32767,17960,5890,-14,-72,6
32767,5422,2136,-82,-1009,186,32767,18296,6072,-15,-45,29
32767,5278,2082,-73,-996,194,32767,18284,6540,-90,-42,37
32767,5256,1944,-40,-1012,202,32767,18046,6528,-160,-65,28
32767,5310,1990,0,-1019,212,32767,17720,6556,-162,-80,17
32767,5396,1756,34,-1031,208,32767,17516,6534,-142,-94,6
32767,5538,1444,28,-1010,193,32767,17558,6448,-110,-141,5
32767,5638,1468,-8,-1000,197,32767,17626,6310,-95,-160,4
32767,5546,1192,-28,-989,211,32767,17610,6172,-95,-169,0
32767,5460,1044,-46,-958,214,32767,17594,6120,-99,-166,-11
32767,5328,1058,-36,-969,210,32767,17610,5854,-104,-156,-21
32767,5382,704,-30,-964,185,32767,17668,5628,-114,-115,-22
32767,5270,420,-74,-943,191,32767,17760,5624,-129,-61,-13
32767,4908,24,-88,-905,225,32767,17804,5686,-135,-7,0
32767,4554,84,-76,-901,276,32767,17538,6312,-146,0,12
32767,4262,-130,7,-938,288,32767,17198,6206,-165,-37,1
32767,4604,-170,92,-964,234,32767,17100,5800,-116,-28,-26
32767,5016,-506,95,-972,216,32767,17320,5812,-43,34,-25
32767,4942,-962,34,-939,231,32767,17710,6186,-18,44,15
32767,4772,-1272,-16,-876,201,32767,17706,6164,-53,34,26
32767,4744,-1446,-11,-845,171,32767,17406,6622,-71,28,27
32767,4582,-1624,-24,-825,152,32767,17054,6048,-72,-25,-10
32767,4436,-1814,-35,-802,137,32767,17300,5982,-21,-9,-15
32767,4422,-2022,-28,-777,128,32767,17572,5876,14,36,11
32767,4378,-2354,-13,-747,133,32767,17794,5938,-7,83,35
32767,4416,-2486,-18,-712,141,32767,17842,6004,-45,116,43
32767,4468,-2576,-9,-708,137,32767,17706,6202,-96,115,50
32767,4660,-2856,6,-722,118,32767,17356,6604,-141,80,53
32767,4772,-3088,-34,-737,102,32767,16896,6968,-159,1,28
32767,4792,-3264,-89,-727,110,32767,16820,6186,-128,-71,-40
32767,4620,-3514,-126,-683,112,32767,17196,6220,-50,-38,-42
32767,4408,-3648,-129,-636,102,32767,17516,6146,-13,-25,-10
32767,4240,-3632,-86,-631,108,32767,17698,5892,-25,-21,18
32767,4162,-3738,-46,-650,106,32767,17552,6160,-45,0,44
32767,4242,-3826,-11,-657,98,32767,17124,6450,-65,-18,43
32767,4448,-4104,20,-628,96,32767,16712,6412,-58,-49,11
32767,4548,-4430,10,-584,78,32767,16756,5894,0,-56,-21
32767,4566,-4526,-21,-533,64,32767,17296,5864,75,-2,-20
32767,4386,-4328,-25,-531,90,32767,17682,5890,60,32,7
32767,4154,-4480,-8,-569,112,32767,17708,6208,23,46,24
32767,4080,-4564,-2,-579,90,32767,17342,6852,-7,12,14
32767,4284,-4966,2,-541,60,32767,16926,6330,-34,-62,-36
32767,4462,-5180,-12,-495,46,32767,16868,5952,7,-91,-70
32767,4478,-5360,-118,-435,46,32767,17166,5920,73,-71,-58
32767,4280,-5394,-145,-372,65,32767,17530,5902,102,-23,-29
32767,3914,-5288,-98,-329,90,32767,17908,6112,97,28,0
32767,3766,-5364,-12,-316,87,32767,17990,6304,68,28,15
32767,3922,-5544,43,-307,39,32767,17812,6690,10,-24,15
32767,4208,-5656,39,-307,-12,32767,17560,6366,-43,-82,2
32767,4552,-5786,5,-311,-35,32767,17546,6038,-31,-68,-8
32767,4638,-5870,-67,-294,-46,32767,17656,6070,-31,19,17
32767,4360,-5960,-143,-244,-35,32767,17672,6118,-59,23,16
32767,3854,-5930,-120,-180,0,32767,17610,6166,-98,3,8
32767,3668,-5778,-61,-189,1,32767,17332,6356,-129,-16,-4
32767,3734,-5862,-5,-237,-21,32767,17148,6346,-134,-36,-24
32767,4080,-6016,21,-267,-31,32767,17246,6064,-116,-46,-45
32767,4286,-6290,20,-243,-27,32767,17430,6022,-93,-35,-48
32767,4332,-6346,10,-172,-18,32767,17504,6102,-82,-20,-29
32767,4324,-6058,31,-119,25,32767,17420,5968,-68,-9,-16
32767,4224,-5830,71,-125,65,32767,17408,5998,-51,-1,-9
32767,4256,-6072,89,-179,39,32767,17338,6186,-45,2,-9
32767,4430,-6240,75,-220,11,32767,17364,6062,-39,-9,-20
32767,4612,-6272,45,-227,-14,32767,17374,5978,-25,-8,-13
32767,4588,-6272,9,-197,-30,32767,17382,6230,-10,-4,0
32767,4532,-6280,-21,-173,-26,32767,17390,6238,-5,4,15
32767,4416,-6212,-28,-181,-5,32767,17290,6376,-16,-29,-5
32767,4170,-6300,-8,-214,8,32767,17170,6108,-17,-54,-31
32767,4206,-6532,-2,-242,2,32767,17238,6016,4,-42,-36
32767,4374,-6690,-15,-226,1,32767,17292,6176,14,-25,-25
32767,4476,-6776,-34,-206,16,32767,17328,6158,24,-17,-17
32767,4430,-6824,-56,-174,42,32767,17368,6086,32,-10,-13
32767,4290,-6904,-63,-121,68,32767,17474,6128,31,-10,-18
32767,4192,-6948,-49,-83,78,32767,17504,6156,8,-22,-23
32767,4268,-6882,-17,-89,62,32767,17440,6210,-7,-23,-22
32767,4404,-6972,-8,-110,33,32767,17424,6142,-14,-28,-23
32767,4488,-7132,1,-115,23,32767,17436,6116,-9,-28,-22
32767,4378,-7234,-52,-68,34,32767,17492,6084,-13,-23,-19
32767,4212,-7102,-42,-38,33,32767,17496,6138,-26,-27,-14
32767,4204,-7054,-15,-28,17,32767,17502,6150,-46,-35,-15
32767,4224,-7078,2,-32,3,32767,17332,6252,-48,-38,-21
32767,4258,-7146,12,-46,-9,32767,17252,6116,-12,-45,-27
32767,4336,-7182,1,-38,-22,32767,17416,6106,19,-35,-18
32767,4344,-7158,-29,0,-24,32767,17544,6102,24,-24,0
32767,4228,-7194,-45,48,-7,32767,17592,6120,23,-7,14
32767,4070,-7022,-20,43,9,32767,17546,6202,22,-5,15
32767,4134,-6962,-9,-1,-7,32767,17558,6122,19,-8,11
32767,4226,-7064,-7,-18,-12,32767,17632,6074,12,-9,8
32767,4286,-7054,2,-2,-4,32767,17724,6066,-12,-1,18
32767,4400,-7112,1,17,-9,32767,17634,6094,-49,-9,25
32767,4422,-7108,-24,31,-14,32767,17518,6176,-72,-13,22
32767,4364,-7072,-48,34,-1,32767,17388,6312,-81,-24,9
32767,4322,-6976,-35,37,2,32767,17322,6246,-79,-39,-9
32767,4316,-7046,-11,47,-6,32767,17354,6162,-51,-41,-14
32767,4432,-7050,-7,55,-6,32767,17368,6182,-28,-38,-3
32767,4552,-7050,-29,64,-9,32767,17442,6092,-4,-28,6
32767,4470,-7066,-48,69,-4,32767,17464,6108,7,-14,5
32767,4386,-7052,-51,80,8,32767,17368,6108,-11,-7,-3
32767,4268,-6970,-34,97,10,32767,17300,6114,-9,-16,-12
32767,4278,-6902,8,95,8,32767,17422,6192,-14,-37,-23
32767,4396,-6954,26,67,-5,32767,17542,6016,-33,-42,-33
32767,4532,-7018,6,51,-13,32767,17658,6056,-42,-35,-23
32767,4576,-6854,-10,40,0,32767,17640,5974,-66,-34,-14
32767,4492,-6764,0,44,15,32767,17530,6126,-89,-36,-15
32767,4484,-6738,11,61,17,32767,17450,6012,-86,-32,-20
32767,4548,-6746,15,74,17,32767,17408,6124,-58,-23,-11
32767,4522,-6882,-7,67,17,32767,17346,6142,-37,-22,3
32767,4416,-6790,-49,62,17,32767,17340,6172,-8,-31,4
32767,4320,-6770,-71,72,20,32767,17418,6046,9,-28,-6
32767,4146,-6772,-54,77,24,32767,17498,6030,14,-23,-6
32767,4084,-6666,-6,69,21,32767,17572,6094,7,-21,-1
32767,4192,-6560,8,42,8,32767,17536,6198,-4,-12,1
32767,4276,-6640,8,28,1,32767,17562,6200,-16,-5,-7
32767,4432,-6730,-14,25,-8,32767,17540,6202,-42,-17,-15
32767,4432,-6796,-37,23,-1,32767,17470,6188,-52,-29,-16
32767,4376,-6746,-50,26,16,32767,17552,6074,-58,-32,-18
32767,4292,-6712,-53,44,23,32767,17476,6226,-67,-30,-13
32767,4278,-6766,-47,57,25,32767,17434,6150,-57,-27,-7
32767,4266,-6690,-34,46,26,32767,17406,6080,-44,-33,-12
32767,4372,-6686,-35,40,28,32767,17396,6212,-35,-41,-11
32767,4356,-6756,-35,37,23,32767,17404,6094,-32,-45,-8
32767,4450,-6762,-17,43,14,32767,17356,6122,-20,-44,-9
32767,4438,-6690,-18,39,6,32767,17426,6112,-8,-44,-13
32767,4460,-6776,-23,31,3,32767,17480,5934,1,-49,-23
32767,4348,-6834,-26,34,7,32767,17574,6042,-9,-41,-26
32767,4340,-6686,-24,49,13,32767,17450,5966,-21,-43,-30
32767,4340,-6634,-24,48,8,32767,17524,5992,-13,-32,-28
32767,4378,-6672,-26,38,6,32767,17536,6088,-13,-20,-22
32767,4386,-6704,-28,39,11,32767,17608,6152,-18,-22,-16
32767,4398,-6666,-29,41,20,32767,17612,6156,-21,-24,-15
32767,4392,-6778,-29,42,30,32767,17612,6278,-25,-26,-15
32767,4406,-6706,-29,59,33,32767,17492,6298,-39,-42,-12
32767,4432,-6690,-39,70,29,32767,17254,6192,-32,-50,-13
32767,4426,-6608,-42,61,24,32767,17270,6242,-8,-49,-21
32767,4344,-6610,-42,30,20,32767,17370,6152,7,-52,-29
32767,4286,-6652,-37,32,23,32767,17538,6056,3,-49,-36
32767,4262,-6610,-29,51,17,32767,17618,5990,-17,-52,-38
32767,4306,-6638,-20,60,7,32767,17476,6112,-35,-53,-43
32767,4410,-6592,-34,45,-2,32767,17334,6186,-32,-49,-53
32767,4392,-6580,-47,32,0,32767,17470,6104,-11,-38,-60
32767,4342,-6656,-47,25,5,32767,17764,5958,8,-24,-40
32767,4258,-6650,-49,33,4,32767,17838,5926,-4,-20,-14
32767,4292,-6648,-49,39,4,32767,17800,6064,-17,-22,-2
32767,4288,-6714,-43,22,14,32767,17698,6200,-37,-31,3
32767,4324,-6532,-31,17,12,32767,17562,6234,-45,-41,6
32767,4354,-6678,-22,14,5,32767,17540,6216,-42,-36,14
32767,4340,-6736,-9,5,-5,32767,17568,6182,-27,-35,16
32767,4420,-6744,-16,0,-25,32767,17590,6158,-25,-38,18
32767,4440,-6770,-48,10,-47,32767,17598,6074,-40,-39,22
32767,4384,-6696,-71,13,-52,32767,17464,6134,-59,-37,24
32767,4326,-6698,-82,20,-45,32767,17358,6114,-58,-43,13
32767,4232,-6672,-66,45,-38,32767,17380,6104,-44,-44,1
32767,4318,-6624,-48,45,-34,32767,17526,6048,-36,-39,3
32767,4432,-6664,-48,32,-25,32767,17554,6088,-32,-38,9
32767,4528,-6778,-64,32,-13,32767,17580,6156,-34,-35,16
32767,4532,-6830,-65,49,4,32767,17446,6108,-48,-35,15
32767,4480,-6872,-48,55,16,32767,17324,6110,-46,-29,10
32767,4566,-6650,-37,40,20,32767,17328,6114,-33,-36,5
32767,4622,-6646,-14,19,22,32767,17308,6052,-26,-39,4
32767,4730,-6732,2,21,17,32767,17350,6082,-25,-36,5
32767,4766,-6802,-11,43,4,32767,17266,6184,-28,-35,1
32767,4736,-6766,-33,53,0,32767,17232,6198,-17,-38,-12
32767,4638,-6690,-42,46,13,32767,17350,6070,3,-41,-25
32767,4398,-6612,-24,36,23,32767,17490,6060,9,-43,-22
32767,4340,-6558,-4,21,18,32767,17616,6050,3,-41,-11
32767,4476,-6646,10,33,14,32767,17542,6128,-5,-35,-2
32767,4560,-6670,1,57,18,32767,17560,6222,-14,-32,0
32767,4520,-6718,-29,48,29,32767,17582,6172,-16,-46,-4
32767,4378,-6628,-28,34,44,32767,17620,6034,-25,-57,-5
32767,4232,-6634,-13,36,47,32767,17646,6004,-38,-57,2
32767,4292,-6568,2,51,34,32767,17598,6098,-50,-53,14
32767,4272,-6660,-5,52,9,32767,17468,6186,-61,-44,19
32767,4354,-6582,-22,42,-12,32767,17348,6170,-56,-44,12
32767,4362,-6568,-43,25,-17,32767,17348,6070,-40,-49,3
32767,4228,-6614,-50,20,-13,32767,17424,6012,-33,-44,4
32767,4174,-6592,-21,27,-17,32767,17420,6102,-33,-40,10
32767,4258,-6586,-11,48,-24,32767,17372,6088,-44,-43,11
32767,4316,-6614,-22,49,-19,32767,17316,6122,-46,-53,5
32767,4362,-6598,-26,43,-5,32767,17326,6142,-45,-58,-5
32767,4312,-6582,-20,51,11,32767,17426,6132,-60,-64,-15
32767,4362,-6456,-3,56,20,32767,17382,6106,-64,-67,-14
32767,4516,-6534,19,66,14,32767,17212,6140,-57,-55,-13
32767,4702,-6526,8,63,5,32767,17252,6116,-37,-43,-14
32767,4714,-6562,-24,50,3,32767,17348,6060,-18,-37,-19
32767,4544,-6486,-36,37,7,32767,17476,5900,-24,-34,-22
32767,4484,-6502,-29,48,11,32767,17386,5948,-39,-35,-18
32767,4434,-6492,-15,67,13,32767,17252,5948,-50,-26,-16
32767,4446,-6436,-4,56,7,32767,17180,5868,-40,-21,-25
32767,4548,-6508,-12,27,1,32767,17226,6014,-32,-23,-34
32767,4582,-6486,-23,14,5,32767,17226,5888,-37,-25,-39
32767,4500,-6498,-30,17,16,32767,17332,5948,-40,-22,-41
32767,4380,-6468,-31,29,24,32767,17350,6068,-33,-15,-40
32767,4316,-6384,-27,37,25,32767,17396,6088,-30,-2,-40
32767,4270,-6346,-31,12,20,32767,17438,6018,-26,-6,-36
32767,4280,-6420,-42,-3,15,32767,17420,6040,-25,-10,-29
32767,4260,-6382,-35,9,18,32767,17370,6064,-29,-11,-21
32767,4302,-6384,-26,34,17,32767,17348,6070,-31,-15,-17
32767,4302,-6464,-24,39,11,32767,17308,6114,-28,-17,-20
32767,4354,-6468,-31,19,4,32767,17246,6142,-18,-21,-22
32767,4332,-6472,-38,9,1,32767,17282,6152,-2,-23,-20
32767,4348,-6578,-25,13,-2,32767,17434,6044,-9,-26,-18
32767,4438,-6576,-25,17,-9,32767,17430,6056,-30,-25,-14
32767,4446,-6526,-32,29,-8,32767,17404,6108,-45,-23,-16
32767,4492,-6556,-41,31,-7,32767,17302,6088,-50,-22,-21
32767,4430,-6624,-59,31,-7,32767,17346,6012,-44,-22,-20
32767,4366,-6640,-74,50,3,32767,17394,6138,-35,-24,-13
32767,4288,-6518,-68,65,16,32767,17424,6156,-33,-27,-4
32767,4298,-6556,-45,67,18,32767,17354,6142,-36,-43,1
32767,4382,-6556,-50,78,20,32767,17322,6116,-30,-40,2
32767,4366,-6542,-53,83,25,32767,17248,6122,-19,-38,5
32767,4392,-6444,-45,83,26,32767,17272,6116,-4,-45,6
32767,4406,-6342,-32,77,19,32767,17418,6008,3,-51,4
32767,4454,-6412,-20,73,7,32767,17464,6036,-3,-48,8
32767,4520,-6376,-25,84,-5,32767,17474,5994,-15,-46,16
32767,4510,-6442,-38,100,-11,32767,17412,6076,-27,-43,21
32767,4432,-6352,-56,105,-14,32767,17308,6128,-31,-50,19
32767,4320,-6348,-56,84,-11,32767,17374,6176,-34,-53,14
32767,4286,-6322,-29,79,-7,32767,17362,6204,-40,-63,10
32767,4372,-6310,-17,89,-8,32767,17352,6108,-41,-70,5
32767,4456,-6324,-28,94,-6,32767,17328,6170,-37,-69,4
32767,4528,-6344,-41,86,0,32767,17358,6150,-32,-72,7
32767,4510,-6336,-49,77,6,32767,17420,5986,-28,-74,9
32767,4430,-6290,-45,80,14,32767,17388,6030,-28,-79,15
32767,4350,-6274,-32,91,16,32767,17362,5962,-26,-79,25
32767,4384,-6258,-24,97,3,32767,17358,6132,-32,-75,24
32767,4436,-6222,-33,92,-17,32767,17290,6174,-30,-82,16
32767,4448,-6230,-25,98,-13,32767,17300,5958,-13,-86,7
32767,4458,-6244,-17,97,-8,32767,17388,6018,-8,-75,14
32767,4372,-6166,-23,98,-19,32767,17472,5944,-10,-64,22
32767,4406,-6198,-28,108,-28,32767,17436,6012,-25,-42,25
32767,4480,-6080,-16,120,-26,32767,17370,6074,-46,-33,18
32767,4538,-6168,-11,123,-26,32767,17248,6238,-67,-54,10
32767,4500,-6114,-18,113,-26,32767,17192,6206,-72,-69,0
32767,4552,-6124,-22,135,-19,32767,17286,6034,-58,-66,-6
32767,4522,-6028,-15,171,-15,32767,17546,6012,-53,-59,-3
32767,4590,-6012,-20,193,-19,32767,17542,6002,-78,-52,7
32767,4592,-6054,-30,196,-16,32767,17394,6082,-110,-44,15
32767,4518,-5968,-35,204,-4,32767,17176,6194,-118,-54,13
32767,4480,-5908,-26,220,1,32767,17044,6094,-98,-65,-4
32767,4498,-5850,-4,242,-8,32767,17072,6086,-70,-69,-14
32767,4568,-5780,-4,256,-25,32767,17186,6102,-50,-76,-9
32767,4570,-5688,-22,254,-28,32767,17214,6026,-38,-79,0
32767,4586,-5724,-37,250,-30,32767,17204,6078,-23,-74,7
32767,4478,-5732,-42,255,-34,32767,17116,6064,5,-70,-5
32767,4430,-5498,-33,273,-38,32767,17248,6106,30,-66,-5
32767,4462,-5430,-7,286,-34,32767,17334,6060,37,-65,7
32767,4546,-5364,7,273,-30,32767,17316,6090,24,-68,16
32767,4598,-5390,-8,267,-30,32767,17202,6228,6,-80,14
32767,4662,-5280,-32,288,-22,32767,17078,6230,9,-93,1
32767,4560,-5322,-47,324,-11,32767,17078,6064,30,-93,-16
32767,4600,-5160,-41,348,-10,32767,17190,6002,56,-89,-15
32767,4622,-5050,-31,376,-7,32767,17306,6174,64,-91,-10
32767,4626,-4930,-31,401,-11,32767,17308,6194,67,-104,-12
32767,4668,-4874,-46,417,-24,32767,17290,6034,81,-109,-19
32767,4660,-4768,-68,427,-31,32767,17340,5978,101,-104,-23
32767,4592,-4740,-80,444,-29,32767,17382,6172,114,-87,-17
32767,4560,-4736,-73,478,-23,32767,17468,6116,140,-98,-21
32767,4534,-4472,-40,532,-28,32767,17604,5916,159,-96,-22
32767,4592,-4420,-30,547,-46,32767,17766,5792,159,-77,-14
32767,4606,-4232,-38,549,-60,32767,17840,5932,137,-59,9
32767,4610,-4078,-50,560,-62,32767,17826,5952,108,-23,18
32767,4484,-4040,-36,581,-68,32767,17840,5936,68,14,8
32767,4464,-3858,-4,605,-80,32767,17980,6028,40,33,-8
32767,4578,-3648,27,621,-89,32767,17956,6170,-5,42,-8
32767,4632,-3550,41,625,-96,32767,17896,6476,-60,41,0
32767,4718,-3314,39,643,-108,32767,17676,6558,-100,13,-9
32767,4796,-3238,34,675,-110,32767,17636,6526,-80,-37,-21
32767,4756,-3060,40,710,-104,32767,17606,6632,-51,-74,-31
32767,4820,-2996,52,744,-100,32767,17664,6182,-42,-121,-39
32767,4850,-2672,59,768,-102,32767,17932,5838,-19,-106,-20
32767,4982,-2578,50,785,-103,32767,18056,6000,29,-67,18
32767,4958,-2534,19,818,-111,32767,18074,6146,51,-55,44
32767,4950,-2234,-13,834,-128,32767,17934,5946,42,-62,48
32767,5046,-1984,26,833,-124,32767,17808,5606,39,-57,45
32767,5018,-1830,23,834,-115,32767,17804,5804,78,4,54
32767,5012,-1474,-12,851,-118,32767,17750,6188,114,37,56
32767,5034,-1370,62,837,-116,32767,17682,6184,123,30,47
32767,5358,-1078,84,817,-140,32767,17588,5922,105,26,19
32767,5602,-892,43,802,-150,32767,17776,5962,114,47,15
32767,5468,-666,9,788,-121,32767,17980,6300,137,57,26
32767,5338,-518,-5,770,-97,32767,18254,6318,109,55,25
32767,5272,-428,2,766,-87,32767,18448,6474,45,38,16
32767,5568,-354,-5,786,-87,32767,18508,6580,-38,-39,17
32767,5772,-296,-40,805,-85,32767,18456,6022,-94,-83,22
32767,5852,-210,-90,831,-77,32767,18356,5926,-130,-54,30
32767,5796,-44,-136,865,-58,32767,18204,6398,-155,-25,45
32767,5596,108,-136,902,-45,32767,17892,6508,-195,-56,35
32767,5414,280,-108,923,-56,32767,17508,6186,-183,-102,12
32767,5280,602,-47,906,-58,32767,17418,5828,-96,-90,4
32767,5204,842,13,876,-64,32767,17644,5726,4,-52,12
32767,5296,988,55,872,-104,32767,18086,5932,73,5,29
32767,5464,1138,87,859,-105,32767,18222,6074,55,29,37
32767,5506,1384,141,813,-99,32767,18028,6394,11,18,35
32767,5588,1682,161,754,-110,32767,17754,6376,-13,-5,11
32767,5718,1788,151,711,-115,32767,17680,6116,-2,-21,-9
32767,5796,1842,132,700,-108,32767,17952,6118,39,-7,-6
32767,5838,2128,95,688,-84,32767,18258,6190,51,5,5
32767,5814,2442,62,666,-56,32767,18544,6226,-14,0,12
32767,5828,2524,59,658,-66,32767,18154,6564,-110,-46,5
32767,6078,2558,34,673,-86,32767,17760,6476,-120,-98,-9
32767,6224,2708,-8,684,-84,32767,17598,5972,-103,-112,-25
32767,6134,2760,-44,684,-83,32767,17686,5744,-52,-73,-22
32767,6044,2698,-49,689,-84,32767,17930,6000,-8,-41,-18
32767,5986,2916,-45,688,-84,32767,17984,5984,-11,-48,-17
32767,6028,2882,-47,676,-97,32767,17956,5852,-30,-46,-14
32767,6104,2792,-71,684,-107,32767,17850,5916,-26,-20,-9
32636,5978,2802,-105,690,-64,32767,17862,6176,-4,-11,-12
32154,5754,3040,-73,659,-41,32767,17824,6292,8,-37,-25
32050,5578,3160,-11,609,-45,32767,17948,5900,11,-21,-38
32052,5626,3332,53,577,-61,32767,18094,6110,34,10,-28
32236,5894,3520,76,557,-76,32767,18296,6208,29,13,-13
32360,6074,3542,49,556,-67,32767,18266,6290,0,-14,-4
32192,6038,3376,20,579,-52,32767,18054,6410,-38,-39,-6
31918,5948,3546,21,590,-46,32767,17890,6200,-57,-52,-23
31742,5884,3788,58,573,-48,32767,17872,6092,-26,-53,-12
31820,6034,3852,84,575,-80,32767,17950,6266,19,-47,4
31810,6204,3804,48,604,-103,32767,18184,6100,20,-65,0
31660,6298,3744,-12,637,-113,32767,18240,6022,-19,-64,4
31278,6258,3704,-49,667,-114,32767,18068,6148,-66,-69,1
30908,6132,3814,-50,680,-113,32767,17944,5918,-79,-79,-5
30650,5968,3864,-21,673,-116,32767,17946,5906,-53,-64,-3
30470,5952,3936,5,663,-128,32767,18080,6000,-14,-47,6
30386,6004,3920,3,664,-128,32767,18200,5892,-18,-48,17
30230,6094,3920,6,652,-103,32767,18174,5966,-49,-37,23
30160,6122,4022,16,654,-106,32767,18052,6120,-64,-44,26
30004,6302,4076,24,673,-125,32767,17860,6120,-55,-58,23
29704,6456,4056,4,693,-136,32767,17878,6018,-27,-54,31
29368,6422,4260,-26,687,-127,32767,17978,6074,12,-36,30
29284,6196,4508,-17,667,-113,32767,18022,6138,23,-43,29
29352,6108,4578,28,667,-120,32767,18066,5840,31,-55,30
29294,6272,4600,58,683,-141,32767,18174,5742,29,-29,36
29208,6496,4638,38,711,-152,32767,18160,6022,31,-4,45
28940,6542,4660,23,732,-153,32767,18012,6134,30,4,51
28704,6490,4818,22,736,-149,32767,17858,6106,41,-8,46
28584,6384,4974,34,740,-151,32767,17822,5730,70,-24,39
28366,6394,4670,58,767,-164,32767,18046,5806,106,4,36
28078,6572,4636,56,780,-185,32767,18296,6036,126,29,44
27894,6640,4888,29,773,-183,32767,18414,6296,116,33,46
27810,6656,4734,12,800,-187,32767,18358,6464,83,9,40
27418,6566,4644,-7,821,-195,32767,18160,6174,37,-27,28
27202,6520,4644,15,817,-188,32767,18094,5854,34,-8,19
26892,6636,4630,34,830,-199,32767,18272,6078,82,16,23
26760,6732,4808,17,834,-215,32767,18424,6234,76,23,23
26624,6814,4838,7,859,-217,32767,18494,6328,43,-5,20
26426,6784,4608,2,898,-234,32767,18416,6406,20,-24,16
26036,6836,4696,-20,925,-251,32767,18280,6250,8,-44,9
25850,6730,4766,-33,929,-241,32767,18282,6078,22,-48,6
25506,6646,4840,-20,968,-257,32767,18448,6066,62,-29,11
25196,6646,4634,-12,979,-276,32767,18622,6082,66,-32,10
24870,6544,4754,-8,968,-270,32767,18758,6262,29,-36,13
24554,6494,4978,9,951,-267,32767,18674,6216,-23,-50,11
24416,6634,5026,36,952,-286,32767,18442,6036,-62,-56,5
24072,6832,5056,36,961,-294,32767,18400,5924,-49,-45,5
23710,6898,5096,16,946,-283,32767,18536,5970,-39,-31,5
23462,6718,4974,-1,911,-268,32767,18568,6100,-50,-17,11
23150,6710,5324,1,875,-266,32767,18418,6288,-76,-34,8
23052,6772,5444,-2,862,-274,32767,18294,6106,-88,-60,-3
22846,6892,5518,-28,858,-285,32767,18158,5812,-71,-51,-6
22540,6822,5306,-46,852,-289,32767,17988,5890,-27,-24,-10
22210,6698,5284,-60,815,-273,32767,18156,5750,67,-8,-18
21890,6452,5396,-47,762,-239,32767,18512,5904,90,4,-12
21652,6468,5476,-8,722,-235,32767,18696,6254,67,-6,-2
21520,6712,5380,5,684,-238,32767,18746,6302,19,-25,-5
21530,6874,5492,-21,656,-223,32767,18740,6312,-21,-45,-13
21442,6868,5418,-62,644,-224,32767,18628,6374,-30,-62,-9
20998,6804,5410,-71,625,-223,32767,18698,6380,-25,-75,-8
20780,6606,5266,-56,580,-199,32767,18658,6388,-42,-70,-9
20734,6506,5326,-38,541,-182,32767,18298,6440,-57,-65,-4
20730,6600,5264,-26,512,-181,32767,18154,6322,-6,-85,-12
20764,6790,5192,-40,491,-181,32767,18400,6154,62,-96,-5
20534,6850,5056,-69,478,-179,32767,18774,6074,75,-94,13
20294,6740,4846,-82,450,-168,32767,18966,6072,38,-96,13
20230,6362,4942,-71,389,-140,32767,19018,5980,-17,-102,4
20356,6434,4878,-50,364,-137,32767,18602,5994,-93,-81,-4
20316,6588,4932,-63,354,-131,32767,18468,6030,-77,-79,-5
20116,6676,4878,-79,355,-129,32767,18368,6008,-43,-78,8
19912,6410,4602,-89,335,-122,32767,18448,6188,-10,-67,10
19752,6030,4586,-48,286,-90,32767,18904,6222,17,-77,13
19602,6038,4630,40,231,-56,32767,19256,6378,1,-99,41
19678,6580,4818,81,169,-22,32767,19126,6424,-161,-140,51
19818,7402,5306,1,113,-14,32767,18824,6148,-279,-161,36
19996,7522,5170,-129,96,-33,32767,18470,6092,-323,-156,22
19840,6942,5258,-236,61,-34,32767,18126,6010,-319,-140,12
19484,6068,5340,-227,29,-9,32767,17892,5774,-296,-121,4
19262,5654,5352,-117,-20,8,32767,17478,5834,-250,-97,9
19436,5716,5298,10,-76,19,32767,17184,5768,-149,-76,9
19844,6164,4988,90,-108,32,32767,17380,5894,-11,-53,11
20110,6606,4914,95,-111,38,32767,17986,6042,122,-26,29
19958,7028,5016,50,-87,44,32767,18378,6150,131,-18,28
19942,7036,4782,6,-86,40,32767,18446,6202,97,-34,14
20040,6838,4658,-30,-77,37,32767,18538,6086,81,-48,13
20212,6442,4456,-48,-80,41,32767,18716,6260,58,-41,19
20252,6216,4376,-19,-71,44,32767,18670,6200,6,-37,14
20288,6372,4302,19,-65,37,32767,18590,6174,-34,-47,11
20366,6636,4368,36,-63,35,32767,18406,6092,-37,-57,12
20528,6722,4374,25,-48,35,32767,18262,5988,-37,-55,22
20522,6758,4352,1,-10,32,32767,18222,6048,-18,-38,28
20536,6978,4730,-35,18,23,32767,18252,6100,18,-34,27
20800,7830,4968,-160,67,-17,32767,18350,5984,36,-29,23
21044,8342,4948,-411,134,-99,32767,18398,6110,42,-21,28
20788,7604,4646,-665,190,-145,32767,18390,6218,43,-13,25
20182,5900,4552,-781,214,-141,32767,18342,6256,41,-21,17
19506,4378,4712,-680,190,-121,32767,18398,6378,55,-34,16
19392,3864,4880,-435,132,-101,32767,18348,6134,51,-44,11
19596,4276,4570,-197,81,-77,32767,18494,6172,55,-44,10
19872,5084,4314,-18,29,-27,32767,18724,6220,61,-55,18
20002,5516,4422,37,15,3,32767,18662,6302,31,-67,17
20006,6024,4476,41,20,9,32767,18476,6184,14,-77,10
20086,6134,4350,-1,21,9,32767,18452,5942,22,-80,2
20188,5776,4410,-40,34,9,32767,18564,5884,50,-60,4
20150,5528,4266,-12,48,17,32767,18788,6068,43,-11,-1
19942,5524,4462,49,55,31,32767,18710,6164,-1,-14,-10
20048,5852,4676,95,59,39,32767,18602,6248,-21,-28,-10
20358,6142,4464,84,69,39,32767,18526,6340,-6,-42,-3
20274,6244,4570,49,90,36,32767,18652,6408,14,-57,3
19930,6230,4592,11,98,31,32767,18678,6422,4,-74,3
19806,6110,4696,-26,79,31,32767,18694,6298,3,-86,4
19888,5830,4752,-34,60,43,32767,18784,6194,12,-78,3
19964,5688,4678,-8,48,50,32767,18682,6200,5,-76,9
19856,5728,4678,19,35,56,32767,18792,6046,4,-73,4
19762,5786,4638,30,16,55,32767,18890,6058,-3,-70,5
19832,5888,4734,31,-6,55,32767,18832,6104,-15,-64,15
19996,6004,4874,22,-8,53,32767,18618,6210,-21,-71,18
19920,5960,4844,27,0,56,32767,18646,6274,-13,-72,12
19774,5828,4686,40,4,60,32767,18772,6216,-1,-83,9
19758,5586,4832,86,-5,68,32767,18826,6204,2,-79,11
19898,5852,4912,123,-5,64,32767,18862,6250,-6,-83,14
20126,6352,4798,110,-1,47,32767,18836,6290,-18,-84,11
20172,6458,4610,52,8,43,32767,18700,6114,-32,-87,5
19928,6090,4636,23,-1,48,32767,18612,6028,-30,-89,3
19890,5870,4672,31,-32,57,32767,18650,6024,-16,-82,7
19972,5978,4646,52,-55,57,32767,18668,6120,6,-69,17
20102,6194,4728,38,-70,42,32767,18746,6302,3,-80,16
20140,6244,4808,25,-68,44,32767,18582,6230,-9,-93,8
20094,6162,4860,23,-63,46,32767,18546,6112,3,-97,8
20158,6278,4940,39,-49,39,32767,18722,6026,43,-88,10
20114,6434,4748,30,-30,30,32767,18884,6176,47,-65,14
20064,6348,4778,7,-12,34,32767,18844,6252,24,-78,13
20048,6256,4736,10,-5,31,32767,18932,6258,5,-87,9
20152,6234,4758,25,-2,28,32767,18902,6254,-7,-91,11
20088,6328,4688,37,-2,36,32767,18988,6476,-13,-99,5
20138,6414,4604,32,-18,35,32767,18894,6554,-23,-109,8
20114,6526,4574,19,-23,33,32767,18768,6368,-29,-119,8
20198,6562,4788,-2,-19,29,32767,18770,6288,4,-124,9
20238,6448,4838,-17,-20,29,32767,19024,6282,37,-131,19
20314,6238,4694,0,-10,34,32767,19190,6288,26,-135,20
20258,6316,4640,15,-5,35,32767,19176,6078,-22,-142,18
20222,6552,4724,21,-7,30,32767,19020,5970,-45,-131,19
20388,6522,4646,10,-3,26,32767,18878,6018,-52,-124,11
20356,6440,4626,6,5,26,32767,18798,6122,-41,-121,6
20190,6416,4840,4,4,36,32767,18838,6228,-23,-116,13
20054,6250,4832,32,-20,48,32767,18872,6244,-6,-112,14
20142,6300,4716,59,-38,52,32767,19002,6022,5,-109,14
20296,6594,4800,52,-38,47,32767,19152,6196,6,-99,20
20356,6742,4772,-17,-37,35,32767,19204,6258,-14,-84,11
20290,6410,4830,-33,-37,49,32767,19192,6230,-40,-81,4
20190,6268,4754,-1,-38,55,32767,19080,6312,-68,-84,5
20084,6374,4874,28,-74,62,32767,18916,6176,-67,-91,19
20342,6596,4970,38,-96,64,32767,18796,6100,-57,-93,26
20538,6694,4934,9,-84,58,32767,18930,6074,-39,-77,20
20480,6756,4868,-16,-72,52,32767,19094,6096,-49,-60,15
20402,6612,4910,-32,-71,52,32767,19066,6180,-70,-52,9
20396,6498,4916,-29,-77,50,32767,18794,6026,-97,-54,4
20674,6542,5020,-22,-67,37,32767,18652,6034,-86,-48,-1
20768,6596,5052,-12,-52,43,32767,18612,6172,-55,-34,-5
20602,6676,4966,3,-44,47,32767,18672,6238,-19,-26,-5
20530,6686,4928,-1,-41,38,32767,18716,6230,-2,-24,-6
20512,6638,4788,-1,-39,30,32767,18772,6372,7,-27,-9
20562,6662,4848,14,-39,27,32767,18804,6310,15,-33,-13
20510,6736,4754,6,-47,32,32767,18954,6090,15,-39,-17
20486,6792,4754,-37,-64,38,32767,19004,6132,-1,-24,-22
20552,6690,4624,-60,-80,40,32767,18900,6210,-17,-22,-22
20830,6506,4614,-50,-86,40,32767,18748,6162,-24,-22,-24
20962,6518,4608,-19,-75,41,32767,18752,6166,-14,-9,-26
20950,6676,4646,8,-69,46,32767,18966,6228,-3,1,-31
20774,6760,4676,18,-66,47,32767,18938,6416,-7,16,-25
20974,6724,4504,12,-68,47,32767,18690,6310,9,-2,-26
21058,6850,4596,7,-56,43,32767,18644,5986,64,-15,-18
21016,7064,4582,-24,-26,28,32767,18964,5924,133,-2,-2
21032,6916,4670,-60,-16,21,32767,19286,5982,144,20,-3
21092,6604,4624,-64,-1,28,32767,19528,6168,101,26,-14
21028,6468,4578,-43,17,34,32767,19470,6368,32,-7,-19
21054,6582,4628,-26,18,32,32767,19344,6340,-20,-25,-17
21168,6682,4598,-38,19,27,32767,19078,6426,-38,-34,-14
21218,6664,4438,-57,34,13,32767,19024,6424,-29,-45,-21
21062,6490,4640,-67,46,11,32767,19044,6248,-26,-56,-23
20904,6354,4770,-51,44,9,32767,19078,6274,-25,-52,-21
21042,6436,4720,-41,46,2,32767,18944,6300,-21,-65,-22
21076,6490,4728,-37,56,-1,32767,18912,6144,-14,-62,-25
21004,6444,4836,-29,71,-6,32767,18970,6094,8,-45,-28
20872,6410,4876,-12,73,-4,32767,19048,6212,32,-39,-36
20908,6506,4812,5,66,-4,32767,19094,6122,29,-43,-43
21000,6604,4768,-4,59,-7,32767,19148,6138,4,-38,-42
20878,6648,4798,-15,64,-17,32767,19062,6370,-6,-44,-45
20668,6700,4892,-29,59,-17,32767,19096,6158,1,-54,-56
20854,6458,4898,-13,37,-2,32767,19156,6142,1,-51,-53
20950,6472,4820,22,37,8,32767,19142,6276,2,-49,-43
20848,6646,4788,46,35,6,32767,19098,6310,2,-49,-49
20688,6672,4760,43,30,21,32767,19220,6424,2,-55,-57
20716,6528,4846,69,27,36,32767,19258,6214,-3,-69,-61
20608,6738,4772,112,22,35,32767,19194,5958,-24,-74,-57
20636,7032,4762,109,1,40,32767,19012,5850,-18,-63,-45
20822,7172,4792,74,-7,40,32767,18872,5942,47,-31,-51
20872,7256,4996,10,10,20,32767,18920,6052,98,-24,-62
20674,7072,5108,-24,8,13,32767,18986,5828,112,-11,-64
20658,6812,5060,-27,2,11,32767,19106,5682,123,29,-54
20614,6626,5030,9,0,22,32767,19292,6066,143,61,-53
20714,6580,5044,53,-14,31,32767,19696,6200,160,66,-51
20836,6834,5038,82,-24,33,32767,19984,6398,119,56,-44
20716,7128,5066,66,-29,24,32767,19966,6648,37,31,-33
20732,7162,5028,14,-55,26,32767,19756,6724,-35,1,-36
20800,6792,5158,-10,-105,40,32767,19526,6604,-77,-31,-48
20870,6678,5090,13,-127,49,32767,19360,6576,-71,-47,-49
20758,6782,5140,34,-158,52,32767,19460,6524,-48,-67,-57
20798,6946,5130,43,-197,66,32767,19592,6408,-53,-85,-56
20892,7046,5090,46,-220,77,32767,19680,6378,-69,-101,-50
20942,7034,5040,55,-246,85,32767,19682,6092,-94,-112,-34
21000,7122,5206,58,-281,92,32767,19540,6220,-106,-113,-15
21172,7218,5336,53,-307,99,32767,19364,6212,-106,-120,-17
21316,7196,5296,42,-320,105,32767,19140,6198,-98,-117,-25
21366,7240,5124,30,-331,111,32767,19112,6104,-69,-112,-23
21452,7262,5066,29,-355,120,32767,19070,6018,-18,-112,-20
21326,7152,5088,37,-402,135,32767,19156,5852,9,-94,-17
21404,7084,5230,94,-465,158,32767,19410,6084,41,-68,-14
21544,7140,5250,157,-525,201,32767,19564,6288,37,-73,-9
21706,7308,5378,191,-594,247,32767,19642,6336,10,-86,-3
21870,7734,5076,198,-651,276,32767,19568,6240,-22,-103,0
22164,8018,5074,100,-744,317,32767,19502,6376,-53,-108,3
22554,7964,5370,17,-800,348,32767,19344,6502,-73,-114,0
22764,7598,5370,-1,-849,374,32767,19318,6384,-79,-126,-5
22856,7326,5446,34,-898,390,32767,19324,6360,-105,-131,-12
23060,7262,5650,94,-954,400,32767,19410,6266,-121,-134,-17
23598,7464,5674,117,-998,407,32767,19358,6106,-141,-136,-18
24164,7760,5650,93,-1013,401,32767,19292,6082,-163,-124,-14
24532,7924,5630,63,-1011,378,32767,19276,6120,-159,-116,-6
24788,8042,5682,10,-987,348,32767,19158,6170,-176,-112,-4
25066,8088,5408,-61,-947,329,32767,19074,6102,-177,-100,-4
25274,8020,5196,-104,-921,318,32767,19010,6108,-165,-92,-7
25400,7684,5116,-121,-917,313,32767,18964,6244,-151,-98,-2
25572,7398,5136,-100,-942,303,32767,18660,6290,-148,-107,-12
25804,7346,5030,-70,-956,292,32767,18658,5934,-122,-99,-27
25994,7430,4852,-27,-969,285,32767,18860,6058,-71,-58,-23
26340,7482,4832,-17,-975,276,32767,19082,6172,-57,-30,-17
26594,7656,4698,-17,-985,272,32767,19174,6360,-94,-38,-14
27044,7706,4470,-51,-999,264,32767,18986,6264,-151,-79,-13
27426,7834,4600,-92,-999,273,32767,18782,6072,-158,-91,-10
27740,7676,4742,-120,-998,284,32767,18746,6080,-139,-62,-10
28026,7442,4740,-135,-983,267,32767,18830,6274,-126,-37,-11
28220,7358,4646,-127,-983,239,32767,18750,6390,-134,-50,-12
28468,7326,4756,-110,-987,240,32767,18712,6262,-153,-61,-16
28886,7314,4722,-118,-983,249,32767,18686,6270,-148,-55,-7
29284,7266,4674,-118,-966,252,32767,18582,6284,-150,-43,-8
29660,7266,4310,-142,-920,230,32767,18566,6248,-156,-22,-24
29730,7282,4274,-158,-895,227,32767,18726,6434,-145,-13,-21
29812,7274,4158,-186,-891,232,32767,18730,6540,-163,-27,-15
30048,7178,3966,-217,-879,228,32767,18544,6536,-209,-62,-21
30162,6978,3880,-232,-877,219,32767,18338,6276,-201,-97,-22
30370,6780,3820,-232,-874,209,32767,18352,6062,-192,-76,-20
30532,6694,3678,-210,-866,197,32767,18442,6188,-162,-46,-13
30826,6608,3550,-202,-874,197,32767,18554,6268,-147,-28,6
31190,6624,3432,-175,-878,201,32767,18526,6226,-176,-19,8
31504,6664,3356,-192,-872,194,32767,18368,6732,-211,-17,10
31678,6610,3100,-203,-856,191,32767,18018,6636,-235,-70,-2
31770,6582,2946,-226,-846,190,32767,17994,5922,-208,-103,-13
31910,6466,3022,-224,-861,203,32767,18254,6174,-178,-28,-1
32156,6276,2988,-202,-868,196,32767,18306,6292,-218,-31,-1
32460,6260,3028,-196,-874,174,32767,18032,6310,-267,-35,2
32767,6226,2810,-200,-879,181,32767,17836,6132,-280,-61,-2
32767,6068,2834,-189,-880,193,32767,17830,5732,-251,-61,-3
32767,6064,2832,-156,-890,186,32767,18016,5776,-230,-22,5
32767,6176,2762,-143,-910,176,32767,18144,5806,-229,19,31
32767,6152,2486,-143,-933,182,32767,18214,5918,-236,55,63
32767,6066,2342,-158,-949,190,32767,18020,6176,-252,81,117
32767,5988,2184,-183,-970,191,32767,17462,6834,-270,58,126
32767,5968,2070,-192,-975,195,32767,16858,6652,-273,-23,94
32767,5856,1868,-201,-1003,209,32767,16510,6268,-197,-63,57
32767,5710,1832,-176,-1037,217,32767,16744,6002,-90,-43,44
32767,5780,1492,-170,-1039,192,32767,17260,6072,-20,9,48
32767,5870,1274,-188,-1035,185,32767,17648,6158,-36,39,65
32767,5680,942,-223,-1038,207,32767,17544,6468,-93,8,76
32767,5430,972,-199,-1053,223,32767,16990,6516,-179,-86,40
32767,5300,770,-144,-1087,214,32767,16466,6192,-187,-152,-5
32767,5294,424,-93,-1107,197,32767,16512,5620,-119,-149,-46
32767,5416,130,-66,-1112,197,32767,16926,5504,-34,-71,-52
32767,5478,-120,-79,-1119,194,32767,17342,5832,-13,4,-27
32767,5538,-604,-143,-1098,188,32767,17328,6164,-42,27,-10
32767,5376,-786,-181,-1064,212,32767,16974,6244,-87,6,-22
32767,5040,-892,-170,-1054,233,32767,16738,5832,-58,-44,-67
32767,4914,-1248,-149,-1063,208,32767,16978,5718,-7,-31,-87
32767,4986,-1502,-149,-1063,178,32767,17214,5788,6,8,-78
32767,5082,-1802,-169,-1052,187,32767,17342,5844,19,29,-58
32767,4970,-2120,-184,-1030,218,32767,17456,5808,42,57,-33
32767,4772,-2376,-160,-1002,251,32767,17456,5898,38,82,-6
32767,4546,-2350,-59,-1012,271,32767,17410,6228,22,83,7
32767,4544,-2878,24,-1018,266,32767,17310,6308,9,60,10
32767,4756,-3154,58,-997,233,32767,17088,6424,8,20,-4
32767,5016,-3348,27,-982,198,32767,17052,6202,27,10,-20
32767,5106,-3758,-50,-949,176,32767,17348,6132,50,30,-23
32767,4964,-4176,-137,-857,168,32767,17648,6220,49,48,-8
32767,4452,-4342,-205,-746,189,32767,17858,6310,8,36,6
32767,3702,-4230,-175,-689,215,32767,17726,6550,-50,1,12
32767,3206,-4248,-48,-701,200,32767,17308,6706,-109,-41,-3
32767,3284,-4554,8,-711,153,32767,16890,6488,-112,-71,-39
32767,3632,-5020,9,-667,113,32767,17012,5942,-13,-59,-50
32767,3866,-5376,-32,-581,97,32767,17378,5996,32,-18,-23
32767,3848,-5356,-78,-502,97,32767,17668,6160,26,-3,1
32767,3678,-5164,-82,-447,108,32767,17708,6076,-12,6,14
32767,3570,-5058,-40,-426,112,32767,17420,6350,-45,-10,14
32767,3528,-5236,-15,-433,84,32767,17178,6206,-66,-44,-2
32767,3842,-5706,-51,-430,10,32767,17180,5932,-61,-56,-22
32767,4132,-5826,-94,-403,7,32767,17308,6024,-50,-40,-20
32767,4160,-5854,-131,-352,42,32767,17412,6074,-66,-30,2
32767,3936,-5722,-126,-301,66,32767,17368,6072,-73,-33,-1
32767,3818,-5668,-92,-301,53,32767,17196,6340,-77,-44,-17
32767,3842,-5656,-67,-330,27,32767,17018,6318,-89,-71,-38
32767,3900,-5690,-34,-338,28,32767,16922,5926,-48,-75,-40
32767,3980,-5716,18,-338,45,32767,17034,6024,25,-50,-24
32767,4102,-6102,53,-339,35,32767,17268,5984,71,-26,-4
32767,4280,-6142,37,-318,19,32767,17394,6040,76,-18,4
32767,4272,-6218,-5,-287,30,32767,17490,6126,46,-14,10
32767,4176,-6132,-36,-258,51,32767,17408,6386,13,-15,2
32767,3978,-6092,-28,-247,69,32767,17328,6148,-8,-36,-13
32767,3860,-6274,-4,-257,69,32767,17370,6008,-15,-53,-26
32767,3800,-6456,8,-260,43,32767,17394,5992,-30,-41,-21
32767,3944,-6552,12,-248,21,32767,17384,5972,-42,-32,-12
32767,4066,-6744,-60,-205,13,32767,17302,6166,-50,-27,-8
32767,3862,-6654,-66,-151,29,32767,17108,6182,-48,-35,-27
32767,3716,-6640,-7,-139,45,32767,17052,6246,-17,-44,-39
32767,3740,-6634,38,-164,37,32767,17090,5910,21,-44,-39
32767,3856,-6734,40,-205,1,32767,17550,5842,78,-9,0
32767,4022,-6974,20,-216,-17,32767,17698,5952,70,16,15
32767,4060,-7078,3,-189,-12,32767,17760,6166,11,23,7
32767,4050,-7112,-10,-130,-3,32767,17568,6126,-31,13,5
32767,4128,-7040,-11,-68,8,32767,17532,6056,-44,9,5
32767,3996,-7072,-3,-45,17,32767,17582,6080,-52,6,7
32767,4018,-7054,-16,-65,5,32767,17520,6064,-76,-2,9
32767,4042,-7214,-37,-60,4,32767,17410,6110,-76,3,4
32767,3930,-7148,-39,-9,18,32767,17186,6148,-57,4,1
32767,3894,-7188,-25,54,18,32767,17106,6170,-20,0,-2
32767,3898,-7034,-3,83,11,32767,17216,6308,4,0,-8
32767,3900,-6970,16,58,14,32767,17272,6298,22,-7,-24
32767,3902,-6946,30,27,4,32767,17378,6300,33,-8,-32
32767,4020,-6924,29,29,-16,32767,17446,6318,37,-12,-34
32767,4104,-7048,10,39,-23,32767,17680,6250,29,-23,-36
32767,4090,-6992,-21,43,-28,32767,17678,6214,13,-34,-41
32767,4030,-6926,-50,53,-28,32767,17540,6246,-10,-49,-44
32767,3924,-6886,-46,81,-12,32767,17500,6064,0,-46,-42
32767,3862,-6802,-22,94,-1,32767,17540,6004,25,-25,-26
32767,3866,-6784,-6,69,-2,32767,17672,5938,28,-12,-11
32767,3948,-6816,-2,35,-1,32767,17832,5928,7,-7,-15
32767,4120,-6944,-19,55,7,32767,17728,6030,-23,4,-23
32767,4120,-6870,-14,87,16,32767,17634,6036,-43,10,-30
32767,4092,-6810,6,97,22,32767,17554,5968,-51,20,-23
32767,4154,-6728,30,73,30,32767,17650,6068,-53,25,-18
32767,4192,-6846,35,35,25,32767,17628,6070,-69,17,-18
32767,4244,-6940,12,20,8,32767,17522,6100,-73,20,-27
32767,4226,-7014,-28,14,1,32767,17476,6272,-68,28,-33
32767,4128,-6940,-51,10,5,32767,17342,6218,-61,18,-32
32767,4020,-6862,-25,31,8,32767,17412,6036,-24,9,-33
32767,4048,-6652,-7,40,5,32767,17570,6048,14,8,-24
32767,4080,-6772,-20,39,-3,32767,17668,6072,14,8,-9
32767,4020,-6702,-25,46,-1,32767,17618,6236,-4,9,-9
32767,4030,-6690,-16,47,3,32767,17434,6278,-10,-1,-28
32767,4048,-6756,-15,67,3,32767,17432,6130,4,-13,-40
32767,4050,-6676,-36,100,1,32767,17572,6110,24,-9,-35
32767,3930,-6676,-70,106,8,32767,17864,5882,21,-6,-16
32767,3910,-6538,-47,103,15,32767,17872,5976,-12,-3,-8
32767,3954,-6588,-20,94,2,32767,17682,6150,-36,-5,-22
32767,4090,-6672,-24,91,-11,32767,17490,6078,-40,-10,-26
32767,4104,-6654,-31,99,-11,32767,17372,5934,-24,-4,-16
32767,4164,-6582,-26,102,-9,32767,17544,5856,3,10,-2
32767,4234,-6486,-17,98,-11,32767,17590,5962,-14,12,-14
32767,4302,-6528,2,84,-4,32767,17568,6052,-38,11,-36
32767,4320,-6660,-2,61,-2,32767,17472,6214,-51,20,-49
32767,4348,-6710,-37,55,-3,32767,17378,6238,-51,21,-51
32767,4194,-6670,-82,61,0,32767,17496,6014,-36,25,-53
32767,4124,-6600,-71,61,2,32767,17672,6066,-32,33,-61
32767,4140,-6592,-45,45,9,32767,17612,6180,-47,23,-55
32767,4060,-6668,-39,44,13,32767,17516,6178,-49,10,-43
32767,4096,-6784,-44,71,11,32767,17464,6152,-46,2,-32
32767,4172,-6686,-62,110,5,32767,17408,6154,-44,-4,-28
32767,4100,-6584,-65,124,-5,32767,17416,5992,-44,-8,-33
32767,4092,-6530,-43,100,-13,32767,17478,5878,-42,-17,-44
32767,4172,-6572,-24,96,-4,32767,17558,5870,-42,-16,-37
32767,4132,-6448,0,127,-7,32767,17644,5888,-58,-5,-19
32767,4220,-6446,-9,142,-35,32767,17600,5886,-87,-13,-14
32767,4384,-6456,-50,143,-48,32767,17540,5900,-108,-23,-23
32767,4290,-6424,-69,143,-29,32767,17354,5896,-119,-22,-30
32767,4150,-6286,-56,136,-12,32767,17240,5866,-87,-21,-30
32767,4144,-6210,-24,139,-19,32767,17236,5980,-42,-12,-16
32767,4176,-6286,-13,145,-28,32767,17244,6198,-27,14,7
32767,4284,-6222,-18,138,-19,32767,17338,6248,-22,37,9
32767,4220,-6136,9,131,-18,32767,17332,6220,-20,30,-3
32767,4358,-6112,44,125,-21,32767,17336,6226,-41,-11,-5
32767,4456,-6102,38,110,-12,32767,17342,6228,-79,-36,-6
32767,4366,-6204,2,92,8,32767,17282,6180,-103,-56,-15
32767,4276,-6310,-54,99,5,32767,17162,6190,-121,-79,-17
32767,4238,-6038,-105,119,-9,32767,17124,6124,-119,-91,-13
32767,4146,-6000,-116,122,-5,32767,17124,5932,-102,-92,-16
32767,4034,-6014,-80,109,16,32767,17064,6014,-89,-89,-21
32767,4000,-5884,-72,100,24,32767,17028,6084,-70,-97,-20
32767,4046,-5896,-53,99,30,32767,16924,6030,-48,-93,-21
32767,4112,-5850,-15,101,20,32767,17006,6060,-16,-84,-29
32767,4348,-5900,6,102,-5,32767,17188,5814,14,-85,-26
32767,4574,-5902,-28,109,-20,32767,17256,5848,24,-85,-12
32767,4536,-5900,-85,114,-10,32767,17430,5894,15,-102,-2
32767,4336,-5892,-123,124,-2,32767,17382,5790,-15,-108,23
32767,4138,-5876,-132,121,0,32767,17350,5820,-23,-84,40
32767,4142,-5808,-105,113,5,32767,17302,5912,-52,-68,44
32767,4226,-5898,-86,118,3,32767,17148,5982,-89,-63,28
32767,4146,-5940,-91,124,-4,32767,16928,6130,-106,-77,8
32767,4114,-6058,-88,131,-11,32767,16596,6246,-92,-120,-9
32767,4036,-5874,-76,151,-6,32767,16536,5942,-48,-147,-21
32767,4090,-5928,-49,186,-8,32767,16868,5876,37,-120,-25
32767,4274,-5844,-25,209,-17,32767,17184,5932,76,-96,-12
32767,4256,-5768,-27,192,-17,32767,17370,5930,75,-92,-5
32767,4198,-5848,-54,184,-1,32767,17372,6022,65,-98,3
32767,4088,-5804,-76,218,8,32767,17556,5814,116,-26,27
32767,4060,-5672,-70,255,2,32767,17620,6126,112,-3,36
32767,4086,-5518,-66,285,-18,32767,17634,6472,70,-28,25
32767,4024,-5402,-84,295,-17,32767,17562,6486,31,-87,-14
32767,3920,-5362,-80,300,1,32767,17384,6390,28,-130,-58
32767,3822,-5194,-51,311,0,32767,17670,6050,84,-123,-59
32767,3920,-5198,-38,326,-20,32767,18010,5870,112,-74,-26
32767,4066,-5042,-56,344,-33,32767,18108,6138,102,-47,-4
32767,4108,-4988,-74,347,-31,32767,18462,5884,305,29,-1
32767,4106,-4892,-69,359,-34,32767,18326,6194,265,-10,-3
32767,4070,-4946,-62,367,-40,32767,18170,5718,211,-53,-27
32767,4094,-4812,-54,372,-41,32767,18380,5434,171,-1,-50
32767,4086,-4706,-39,387,-48,32767,18854,5746,188,72,-43
32767,4166,-4666,-18,407,-64,32767,19126,6090,163,93,-17
32767,4356,-4546,-14,421,-76,32767,19108,6154,55,65,-3
32767,4524,-4524,-29,436,-68,32767,18676,6330,-47,24,-10
32767,4454,-4408,-45,466,-60,32767,18140,6390,-62,-15,-36
32767,4360,-4488,-85,498,-69,32767,17926,5776,-49,-41,-66
32767,4304,-4350,-138,546,-75,32767,18352,5806,51,35,-52
32767,4170,-4288,-154,595,-61,32767,18800,6146,99,72,-28
32767,4118,-4146,-144,643,-38,32767,19016,6364,69,60,-12
32767,3868,-3950,-119,683,-11,32767,18656,6496,43,21,-11
32767,3724,-3702,-49,693,-2,32767,18368,6202,12,-1,-31
32767,3978,-3562,-38,705,-33,32767,18346,5792,40,6,-28
32767,4110,-3338,-46,747,-50,32767,18648,5704,122,70,-16
32767,4220,-3204,-27,770,-60,32767,19234,6062,183,114,3
32767,4260,-3012,-43,795,-96,32767,19458,6516,127,80,45
32767,4314,-2808,-43,815,-106,32690,19064,6510,38,30,46
32767,4184,-2556,-37,797,-100,32767,18712,6298,-2,7,25
32767,4038,-2344,-27,796,-118,32767,18788,6060,32,12,27
32767,4106,-2214,-18,831,-153,32767,18958,6206,81,17,42
32767,4248,-1928,1,867,-168,32767,19114,6310,77,20,50
32767,4408,-1718,42,873,-157,32767,19054,6454,35,4,34
32767,4492,-1396,91,863,-149,32767,18946,6192,-4,-7,17
32767,4624,-1342,105,868,-150,32767,19026,6082,8,-11,33
32767,4758,-1298,64,915,-142,32767,19110,6306,25,0,48
32767,4696,-1286,-16,980,-110,32686,19106,6748,6,-14,38
32767,4556,-1116,-65,1026,-82,32390,19058,6748,-42,-66,10
32767,4478,-784,-37,1058,-87,32620,18914,6252,-89,-117,-11
32767,4564,-378,9,1060,-116,32767,18948,5726,-93,-113,7
32767,4718,-86,25,1054,-144,32767,19044,5836,-50,-70,33
32767,4828,88,-8,1064,-179,32767,18818,5948,-142,-76,11
32767,4950,194,-36,1094,-197,32767,18660,5876,-131,-69,6
32767,4924,330,-38,1137,-179,32767,18658,5992,-81,-54,12
32767,4638,730,-2,1146,-150,32767,18752,6154,-47,-52,17
32767,4468,1122,74,1100,-138,32767,18734,6016,-46,-77,6
32767,4676,1270,123,1076,-159,32767,18640,5960,-39,-69,5
32767,5028,1426,145,1073,-186,32767,18638,5902,4,-46,21
32767,5416,1410,95,1084,-185,32767,18786,5876,34,-32,22
32767,5336,1494,43,1083,-156,32767,18862,5816,33,-25,9
32767,5046,1902,51,1055,-122,32767,19000,5848,15,-13,10
32767,4948,2264,101,1007,-132,32767,19070,5918,15,2,22
32767,5162,2480,123,966,-179,32767,19086,6112,2,-8,37
32767,5582,2448,112,948,-202,32767,19004,5956,-29,-29,37
32767,5864,2628,50,971,-186,32767,18894,5956,-40,-25,40
32767,5808,2534,-21,1011,-149,32767,18752,6080,-30,-21,34
32478,5546,2784,-12,1041,-82,32767,18696,6142,-15,-17,27
32212,5344,3130,50,1007,-57,32767,18826,6158,27,-22,31
32322,5532,3174,97,991,-77,32767,18878,6080,59,-31,39
32180,6030,3162,102,1031,-107,32767,18906,6074,66,-32,32
31732,6374,3034,48,1063,-114,32767,18968,5928,57,-39,25
31302,6470,3228,-43,1068,-92,32767,19064,5812,69,-19,29
31146,6120,3624,-87,1038,-46,32767,19148,5914,74,-8,29
31042,5714,4006,-42,1015,-30,32767,19088,6042,62,-2,27
30778,5776,4306,37,1007,-94,32767,19150,6156,44,5,18
30570,5992,4422,47,1003,-113,32767,19176,6170,31,0,8
30398,6026,4446,14,997,-95,32767,19292,6240,16,-8,15
30134,5768,4472,-9,988,-81,32756,19214,6344,1,-23,28
29846,5568,4826,33,976,-87,32710,19212,6516,-8,-50,36
29570,5638,4904,80,964,-102,32767,19264,6454,-31,-80,29
29360,5824,4916,106,956,-111,32767,19326,6340,-47,-98,26
29064,5944,4774,95,945,-117,32767,19302,6154,-89,-113,25
28700,6024,5028,83,918,-114,32767,19198,6134,-118,-122,28
28578,5890,5236,91,899,-109,32767,19004,6094,-117,-123,19
28512,5944,5480,110,895,-119,32767,18952,5858,-109,-121,1
28460,6136,5502,99,917,-139,32767,18848,5832,-95,-101,11
28180,6254,5260,67,956,-146,32767,18692,5872,-60,-87,17
27562,6224,5004,27,959,-151,32767,18720,5920,-16,-85,12
27030,6196,5292,22,926,-165,32767,18826,5892,36,-75,10
26764,6098,5392,25,889,-177,32767,18988,5812,45,-63,0
26592,6226,4964,10,858,-187,32767,19064,5826,35,-39,-3
26578,6228,5052,-36,832,-179,32767,19134,5880,37,-35,1
26536,6106,4966,-48,826,-162,32767,19160,5812,31,-28,8
26384,5962,5090,-34,834,-170,32767,19308,5974,31,-23,14
25960,6036,5214,-6,837,-193,32767,19258,6212,-8,-30,22
25568,6136,5166,15,818,-201,32767,19130,6334,-30,-39,21
25354,6164,5086,40,785,-189,32767,19012,6278,-32,-54,16
25308,6164,5104,67,753,-182,32767,19110,6150,-16,-60,15
25242,6246,4954,74,738,-174,32767,19168,6092,-10,-58,22
24972,6402,4948,59,735,-170,32767,19218,6080,-30,-57,21
24788,6400,5062,53,706,-169,32767,19140,6126,-42,-59,13
24684,6354,5218,56,682,-167,32767,19094,6148,-45,-60,15
24460,6408,5130,79,675,-169,32767,19092,6112,-52,-66,12
24140,6562,4978,85,672,-173,32767,19050,6146,-52,-61,10
23922,6620,5236,59,650,-173,32767,19002,6196,-33,-61,13
23802,6588,5414,43,633,-170,32767,18966,6248,-19,-65,10
23858,6608,5350,24,642,-175,32767,19070,6208,-10,-70,2
23660,6620,5336,13,655,-179,32767,19234,6418,0,-72,-3
23374,6636,5262,7,658,-182,32767,19278,6292,-19,-93,-2
23090,6606,5274,2,640,-184,32767,19270,6130,-48,-113,1
22898,6584,5178,-11,621,-184,32767,19216,6094,-74,-114,-2
22706,6474,5208,-12,588,-173,32767,19116,6116,-96,-116,-5
22596,6506,5286,11,557,-154,32767,18938,6004,-113,-116,-8
22450,6552,5274,21,535,-147,32767,18870,5918,-102,-111,-13
22230,6668,5304,17,511,-140,32767,18888,5882,-79,-107,-19
21992,6744,5426,-8,478,-122,32767,18876,5936,-43,-89,-1
21932,6808,5528,-30,462,-121,32767,18886,6028,-32,-78,2
21864,6764,5684,-49,455,-130,32767,18850,6050,-27,-69,0
21806,6664,5874,-59,443,-130,32767,18844,6146,-7,-79,-12
21846,6598,5694,-62,442,-130,32767,19036,5936,3,-84,-6
21814,6552,5602,-77,438,-136,32767,19170,5926,-6,-75,5
21652,6460,5458,-84,441,-143,32767,19220,6036,-34,-62,-1
21358,6518,5346,-89,441,-153,32767,19046,6184,-77,-66,-6
21090,6364,5058,-89,414,-149,32767,18964,6116,-86,-76,-5
21170,6346,4908,-82,390,-135,32767,18822,6160,-67,-84,6
21068,6272,4894,-77,356,-127,32767,18762,5994,-49,-85,12
21020,6218,4936,-60,331,-117,32767,18838,5878,-33,-83,14
20862,6224,4904,-35,305,-104,32767,18916,6000,-12,-68,17
20872,6152,4760,-14,270,-84,32767,18954,6096,0,-57,21
20838,6282,4700,9,248,-69,32767,18898,6092,-11,-64,12
20802,6536,4574,12,216,-57,32767,18980,5872,-9,-63,11
20782,6496,4906,-11,179,-30,32767,19030,6016,4,-50,9
20722,6452,4854,-4,152,-18,32767,19172,6058,-7,-35,2
20598,6402,4924,3,125,-4,32767,19134,6230,-37,-26,4
20494,6502,5038,22,99,6,32767,18912,6278,-65,-39,6
20480,6492,5106,23,77,15,32767,18706,6212,-55,-55,7
20574,6436,5252,18,62,20,32767,18806,6052,-21,-55,4
20620,6510,5182,13,55,28,32767,19052,6112,-8,-42,-1
20648,6584,5020,-12,53,30,32767,19032,6122,-42,-52,-2
20568,6474,4948,-30,40,24,32767,18852,6180,-56,-50,2
20528,6342,5114,-37,16,29,32767,18860,6126,-34,-56,1
20582,6260,5082,-18,2,32,32767,18896,6042,-29,-53,-6
20664,6346,5026,-15,-5,26,32767,18986,5988,-36,-46,-8
20766,6424,5062,-19,-16,23,32767,18958,6136,-43,-44,-15
20784,6450,4982,-36,-13,25,32767,18906,6230,-49,-40,-16
20684,6400,4838,-47,-6,15,32767,18846,6320,-30,-38,-13
20718,6286,4990,-47,-9,15,32767,18894,6010,-13,-49,-14
20744,6248,5088,-30,-1,16,32767,18996,6084,-8,-48,-14
20862,6418,5038,-17,16,-1,32767,19038,6140,-18,-50,-15
20844,6456,4966,-12,26,-7,32767,18998,6056,-33,-44,-18
20626,6378,4992,-4,30,-10,32767,18930,6152,-38,-40,-16
20640,6512,5062,-19,21,-15,32767,18888,6166,-33,-45,-14
20840,6512,4844,-49,16,-16,32767,18982,6070,-26,-51,-17
20860,6416,4698,-64,19,-11,32767,19066,6094,-28,-40,-16
20702,6184,4748,-58,11,-1,32767,18968,6204,-46,-40,-19
20636,6150,4774,-20,-7,8,32767,18870,6182,-44,-40,-21
20706,6226,4898,26,-37,22,32767,18846,6302,-26,-38,-19
20904,6412,4772,40,-52,25,32767,18928,6290,-4,-51,-18
20992,6662,4728,18,-46,26,32767,18988,6096,-4,-55,-18
20922,6692,4770,-23,-31,23,32767,19010,6012,-19,-56,-19
20972,6504,4610,-52,-28,18,32767,18994,6064,-29,-51,-17
20918,6290,4612,-48,-27,24,32767,18960,6082,-33,-45,-21
20962,6286,4636,-37,-27,23,32767,18924,6122,-34,-40,-22
21062,6428,4716,-26,-25,21,32767,18900,6138,-34,-45,-23
21166,6502,4880,-33,-11,22,32767,18872,6048,-24,-46,-22
21062,6552,4810,-38,11,20,32767,18994,6156,-4,-44,-18
20898,6484,4660,-41,19,20,32767,19026,6180,0,-49,-19
20862,6286,4674,-32,14,25,32767,18986,6086,-10,-41,-22
20974,6252,4774,-11,8,32,32767,19004,6156,-4,-38,-14
20990,6346,4752,2,15,27,32767,19038,6120,-4,-44,-18
21036,6504,4828,-16,17,27,32767,18944,6082,-17,-47,-18
21024,6444,4634,-28,14,34,32767,18996,6090,-20,-40,-20
20986,6194,4708,-37,10,31,32767,19030,6058,-13,-43,-20
20954,6192,4624,-17,4,32,32767,19072,6022,-21,-38,-21
20854,6442,4878,-24,11,18,32767,19076,5974,-42,-43,-20
21018,6518,4986,-41,10,13,32767,18970,6088,-54,-36,-20
21124,6424,4982,-56,25,14,32767,18906,6232,-42,-24,-25
21042,6304,4892,-50,49,14,32767,18914,6188,-11,-27,-23
20858,6268,4794,-45,54,10,32767,18952,6122,0,-31,-22
20820,6264,4920,-49,46,6,32767,19158,6084,-9,-31,-18
20900,6220,4842,-42,42,5,32767,19218,6246,-30,-30,-12
20960,6292,4942,-32,45,0,32767,18956,6286,-68,-41,-19
21022,6350,4818,-34,45,-5,32767,19018,6136,-101,-31,-39
20918,6366,4822,-49,42,-4,32767,19076,5968,-124,-35,-48
20862,6266,4926,-57,40,-6,32767,18998,5926,-146,-42,-45
20886,6220,5044,-50,30,-6,32767,18720,6018,-149,-38,-38
20966,6246,4970,-32,29,-3,32767,18548,6026,-133,-30,-49
20974,6304,4890,-12,35,-3,32767,18438,6138,-94,-23,-58
20886,6374,4796,-7,36,0,32767,18434,6130,-41,-23,-58
20858,6402,4872,-22,31,-2,32767,18592,6028,20,-20,-51
20918,6454,4940,-36,22,-4,32767,18836,6062,46,-23,-49
21010,6384,4944,-47,22,-3,32767,18918,6104,57,-26,-48
20902,6356,4932,-40,26,-5,32767,18996,6186,53,-28,-40
20808,6254,4816,-31,24,-2,32767,19032,6212,35,-32,-33
20782,6346,4844,-26,16,0,32767,18986,6084,22,-36,-29
20826,6394,4942,-33,13,-2,32767,19088,6034,11,-41,-26
20912,6314,4962,-35,11,-1,32767,19022,6002,-5,-39,-20
20908,6306,5030,-33,23,-1,32767,19068,6020,-37,-25,-19
20926,6338,4960,-22,26,-7,32767,18994,6108,-47,-19,-15
20900,6388,4968,-31,35,-8,32767,18876,6098,-36,-17,-8
20932,6392,4800,-34,36,-9,32767,18922,6136,-25,-6,-15
20882,6308,4872,-39,31,-9,32767,18964,6136,-31,-12,-23
20834,6282,4858,-36,23,-9,32767,18932,6194,-42,-26,-18
20898,6292,4862,-32,13,-9,32767,18868,6050,-39,-19,-15
20994,6398,4828,-36,17,-9,32767,18890,6038,-26,-17,-15
20980,6334,4888,-39,19,-3,32767,18850,6212,-22,-23,-13
20966,6254,4938,-32,20,-4,32767,18712,6262,-4,-40,-18
20914,6266,4938,-18,20,-3,32767,18418,6154,33,-51,-27
20984,6312,4824,-5,21,-2,32767,18386,5772,72,-39,-36
20958,6436,4926,-6,23,-4,32767,18600,5656,122,-3,-26
20974,6476,4842,-17,29,-7,32767,18966,5806,166,30,-14
20888,6388,4890,-30,31,-7,32767,19228,6120,160,38,-12
21008,6308,4834,-37,32,-2,32767,19540,6336,95,24,-12
21066,6336,4782,-21,36,-9,32767,19526,6464,41,-2,-5
20906,6374,4774,-13,40,-8,32767,19374,6380,-19,-30,-4
20870,6474,4822,-18,37,-9,32767,19308,6374,-59,-44,-7
20860,6354,4808,-25,26,-8,32767,19272,6402,-62,-57,-5
21028,6310,4852,-29,25,-6,32767,19256,6384,-70,-66,-7
21122,6372,4900,-25,33,-11,32767,19074,6270,-86,-74,1
20924,6464,4874,-31,47,-13,32767,18978,6278,-81,-82,1
20864,6370,4924,-38,47,-9,32767,18920,6106,-37,-72,-4
20878,6326,4948,-14,54,-7,32767,19062,6172,-6,-45,2
20870,6378,4978,-13,54,-11,32767,19110,6258,-10,-37,0
20942,6462,4912,-24,59,-10,32767,19200,6228,-21,-52,-4
20964,6342,4796,-53,57,-10,32767,19224,6000,-49,-62,0
20962,6134,4948,-56,55,-13,32767,19286,5964,-72,-60,4
20818,6048,4814,-55,43,-20,32767,19264,6128,-93,-32,-4
20762,6124,4798,-49,32,-28,32767,19182,6016,-108,-24,-11
20832,6134,4732,-58,15,-33,32767,19002,5842,-125,-19,-10
20896,6148,4828,-63,6,-33,32767,18844,5862,-126,-15,-7
20846,6060,4900,-61,11,-37,32767,18712,5802,-111,-2,-11
20884,6094,4856,-45,14,-35,32767,18750,5822,-71,11,-10
20902,6146,4864,-21,16,-33,32767,18874,5880,-26,24,3
20860,6184,4878,8,24,-29,32767,18922,5970,-5,23,22
20920,6334,4804,30,31,-32,32767,18944,6092,-6,27,23
20888,6532,4864,33,38,-25,32767,19070,6158,-3,25,13
20950,6606,4756,28,51,-22,32767,19084,6326,-26,10,3
20848,6702,4666,8,66,-22,32767,19054,6214,-51,3,-4
20684,6590,4684,-24,64,-16,32767,19132,6280,-49,-7,-1
20776,6442,4672,-34,59,-8,32767,19104,6138,-60,-18,16
20800,6338,4890,-26,54,0,32767,19016,6076,-83,-34,12
20816,6382,4814,-7,54,4,32767,18900,5922,-98,-43,0
20848,6512,4818,-18,57,2,32767,18740,5972,-106,-47,-9
20786,6566,4920,-44,57,-1,32767,18590,6054,-70,-36,-11
20814,6452,4986,-68,56,-4,32767,18552,6076,-28,-35,-19
20756,6264,4916,-71,55,2,32767,18688,5970,-8,-34,-23
20710,6292,4898,-66,57,-6,32767,18770,5928,-1,-33,-21
20688,6212,4962,-59,48,-1,32767,18920,6106,2,-34,-23
20576,6082,4910,-39,31,5,32767,18996,6176,-17,-43,-28
20562,6064,4870,-19,11,15,32767,19056,6100,-33,-55,-19
20566,6096,4872,3,-14,36,32767,18996,6126,-56,-61,-15
20548,6124,4920,27,-43,59,32767,18944,6116,-65,-68,-14
20490,6298,5022,47,-74,72,32767,18944,6084,-73,-66,-14
20636,6432,5190,47,-109,79,32767,18844,5940,-83,-65,-20
20862,6470,5328,19,-129,80,32767,18764,5904,-73,-60,-15
20900,6558,5338,5,-115,68,32767,18736,6064,-39,-53,-6
20866,6586,5138,-13,-101,61,32767,18808,5962,-17,-51,1
20948,6370,5190,-12,-101,62,32767,18936,5938,-18,-50,1
21014,6266,5268,-1,-97,54,32767,18890,5856,-26,-46,4
21172,6362,5196,17,-85,42,32767,18904,5846,-39,-43,4
21126,6520,5060,2,-63,36,32767,18788,5906,-50,-46,1
21130,6542,4868,-14,-42,28,32767,18738,5940,-56,-45,-2
21064,6396,4768,-13,-36,31,32767,18678,5996,-48,-38,3
21130,6464,4990,-8,-34,30,32767,18672,6056,-29,-29,1
21266,6510,4972,-15,-26,21,32767,18732,6028,-1,-22,-9
21246,6556,4952,-36,-9,18,32767,18752,5950,0,-19,-9
21334,6520,4826,-50,6,16,32767,18716,6032,1,-20,-5
21330,6402,4658,-57,13,9,32767,18694,6080,6,-28,-5
21366,6326,4724,-41,20,12,32767,18752,5896,18,-30,-6
21286,6380,4664,-23,21,11,32767,18876,5972,26,-18,-7
21258,6530,4614,-33,15,10,32767,18976,6078,8,-18,-7
21320,6594,4508,-72,30,7,32767,18890,6044,-26,-19,-10
21304,6366,4602,-89,31,16,32767,18814,6072,-28,-23,-12
21320,6220,4714,-62,38,27,32767,18736,6214,-11,-22,-9
21124,6348,4572,-21,53,23,32767,18808,6232,6,-35,-13
20984,6438,4808,-5,44,25,32767,18866,6146,12,-42,-9
21230,6428,4854,0,36,37,32767,18874,6042,24,-45,-3
21468,6460,4840,-17,56,30,32767,18944,6154,34,-33,-6
21288,6552,4928,-39,89,17,32767,19024,6076,37,-42,-10
21120,6378,5058,-60,100,17,32767,19130,5992,16,-38,-10
21050,6248,5132,-45,107,14,32767,19252,6028,-3,-41,-14
20984,6366,5110,-40,111,-4,32767,19072,6080,-33,-40,-17
20924,6406,5068,-53,98,-5,32767,18926,6088,-48,-52,-16
20816,6280,5136,-69,85,-7,32767,18878,5988,-42,-53,-16
20804,6206,5074,-68,74,-10,32767,18840,5876,-6,-49,-7
20828,6154,4952,-60,56,-5,32767,18822,5846,26,-43,0
20804,6064,5012,-48,26,2,32767,18944,5862,45,-29,-2
20874,6136,5062,-28,-5,2,32767,19082,5926,43,-2,-11
21008,6230,4978,-31,-21,3,32767,19240,5986,31,2,-25
20950,6280,4970,-36,-18,5,32767,19290,6026,14,0,-21
20860,6342,4972,-37,-23,2,32767,19248,6032,-17,-2,-12
20958,6412,5000,-41,-26,2,32767,19146,6220,-56,-8,-19
21006,6436,5002,-39,-16,-3,32767,18910,6196,-49,-16,-23
21062,6462,4908,-43,-5,-6,32767,18820,6046,-33,-26,-25
21138,6392,4902,-47,7,-2,32767,18832,6064,-8,-22,-22
20976,6388,4704,-51,23,-11,32767,18846,6038,52,-26,-25
21030,6376,4784,-51,18,-3,32767,18916,6030,53,-9,-35
21106,6326,4826,-44,18,2,32767,18984,5938,61,-8,-39
21036,6390,4772,-35,29,0,32767,19094,5870,57,-7,-42
21030,6366,4814,-27,36,6,32767,19126,5762,43,-2,-45
21112,6344,4764,-25,38,14,32752,19066,5884,32,3,-40
21150,6320,4702,-35,39,15,32644,18954,6138,29,-1,-47
21216,6236,4766,-43,39,10,32570,18852,6372,48,-17,-62
21236,6218,4722,-52,48,5,32767,18812,5770,83,-42,-65
21092,6166,4802,-51,48,4,32767,18950,5696,102,-14,-60
21190,6082,4734,-49,50,4,32767,19252,5986,135,8,-58
21194,6134,4778,-29,62,1,32668,19542,6220,137,6,-61
21038,6128,4776,-20,69,0,32516,19742,6382,21,-31,-62
21036,6162,4834,-18,69,-2,32470,19696,6426,-42,-68,-57
21000,6206,4848,-17,68,-9,32572,19570,6478,-72,-102,-44
21078,6216,4864,-16,74,-6,32740,19478,6374,-88,-120,-43
20950,6266,4794,-2,73,2,32730,19416,6336,-103,-139,-38
20894,6296,5012,-4,68,1,32767,19294,6234,-106,-155,-36
20896,6296,4930,-17,58,-3,32767,19162,6044,-109,-159,-35
20940,6254,4914,-36,54,1,32767,19102,5894,-100,-151,-35
20832,6138,5018,-26,53,-3,32767,19180,5930,-59,-144,-37
20730,6150,5154,-1,47,-1,32767,19140,5870,-59,-151,-43
20736,6256,5152,21,40,4,32767,19158,5728,-75,-130,-41
20756,6384,4976,20,38,3,32767,19202,5858,-63,-120,-36
20872,6348,4980,16,38,5,32767,19232,5820,-43,-120,-23
20808,6374,5090,22,33,5,32767,19304,5764,-26,-114,-7
20896,6448,4966,21,26,6,32767,19390,5758,-33,-90,11
20792,6492,4902,1,20,3,32767,19276,6014,-46,-73,5
20788,6500,4882,-18,17,1,32767,19078,6144,-87,-84,-14
20764,6498,4900,-32,13,-3,32767,18868,6242,-90,-84,-11
20832,6312,4764,-34,9,5,32767,18812,6110,-83,-106,-27
20882,6128,4744,7,2,11,32767,19102,5794,-53,-93,-28
20872,6248,4668,49,6,14,32767,19496,6048,-30,-57,-5
20852,6582,4536,55,8,12,32767,19868,6224,-63,-54,22
21074,6714,4540,8,17,9,32767,19832,6280,-151,-71,38
21094,6690,4672,-40,31,8,32767,19348,6362,-219,-96,49
21080,6468,4620,-60,47,7,32767,18562,6318,-265,-133,30
20928,6378,4802,-59,56,-4,32767,18436,5960,-229,-127,8
20838,6268,4804,-39,56,-8,32767,18458,5934,-156,-96,11
20912,6270,4914,-21,59,-11,32767,18688,6218,-110,-62,19
20988,6278,4984,-9,66,-8,32767,18772,6492,-99,-72,11
20858,6384,4988,2,68,-11,32767,18774,6224,-124,-104,-1
20728,6456,5048,1,46,-5,32767,18726,6122,-147,-133,8
20648,6404,5124,4,19,5,32767,18670,5980,-152,-135,13
20580,6422,5266,15,-14,16,32767,18692,5664,-170,-115,-16
20488,6322,5318,24,-66,40,32767,18898,5594,-185,-72,-18
20314,6304,5312,46,-134,64,32767,18934,5828,-220,-20,-10
20312,6430,5448,67,-213,82,32767,18728,6162,-272,-22,0
20262,6592,5674,83,-294,117,32767,18302,6342,-301,-60,-3
20468,6558,5858,95,-398,154,32767,17940,6056,-301,-95,-28
20620,6566,5676,107,-493,190,32767,17916,5760,-262,-90,-37
20784,6734,5846,131,-591,240,32767,18274,5738,-162,-15,6
20898,6864,5930,146,-683,290,32767,18368,5942,-149,32,24
21072,7026,5958,139,-770,310,32767,18394,6422,-157,17,13
21368,7248,6044,105,-846,321,32714,18108,6656,-178,-52,0
21762,7342,6020,61,-909,337,32767,17840,6074,-193,-86,-21
22144,7336,6010,21,-949,352,32767,17810,5648,-156,-26,-25
22410,7108,6090,3,-999,349,32767,18032,5708,-108,52,-8
22760,7022,6006,26,-1028,354,32767,18246,6246,-106,94,4
23068,7038,5802,46,-1053,356,32598,18132,6600,-180,31,-7
23382,7148,5602,43,-1077,361,32558,17960,6424,-216,-63,-10
23674,7202,5442,13,-1099,365,32767,17610,6134,-216,-103,-31
23944,7254,5386,-28,-1128,360,32767,17560,5576,-179,-79,-33
24382,7310,5214,-77,-1149,353,32767,17660,5638,-166,-7,-14
24720,7274,5030,-132,-1160,342,32767,17872,5804,-147,28,-6
25024,7278,4748,-184,-1177,329,32767,17858,5916,-167,28,-11
25452,7178,4820,-267,-1190,325,32767,17660,6180,-192,18,-20
25972,6892,4672,-323,-1191,327,32767,17220,6424,-173,-50,-36
26218,6640,4666,-332,-1188,314,32767,17084,5824,-130,-71,-43
26306,6626,4652,-318,-1196,292,32767,17192,5558,-69,-32,-41
26396,6720,4734,-319,-1226,277,32767,17560,5458,-2,43,-25
26824,6778,4886,-338,-1256,283,32767,17790,5794,37,128,-4
27448,6604,4720,-385,-1272,287,32767,17828,6374,28,134,1
28118,6578,4684,-443,-1249,280,32600,17746,6208,-7,63,-8
28618,6226,4306,-495,-1210,297,32578,17550,6194,-28,15,-23
28674,5766,4668,-483,-1203,298,32767,17250,5850,-17,-71,-47
28724,5426,4598,-393,-1224,277,32767,17608,5474,30,-23,-51
29054,5346,4540,-303,-1251,233,32767,18030,5744,48,68,-30
29500,5422,4570,-261,-1276,217,32767,18244,6042,7,96,-8
29970,5292,4228,-241,-1287,214,32528,17952,6394,-73,41,2
30304,5252,4106,-220,-1289,195,32358,17478,6610,-111,-30,-14
30628,5272,4038,-220,-1286,183,32568,16974,6116,-98,-99,-39
30976,5130,3932,-228,-1284,209,32767,17136,5518,-2,-105,-48
31276,4948,3932,-215,-1286,202,32767,17672,5478,61,-29,-28
31580,4980,3546,-193,-1288,170,32767,18122,5696,57,52,12
31860,5118,3234,-205,-1282,154,32767,18060,6170,9,74,33
31956,5040,2988,-233,-1284,162,32600,17692,6310,-46,53,23
32060,5048,2784,-231,-1294,160,32434,17426,6094,-48,-14,-13
32326,4996,2572,-249,-1308,156,32662,17488,5812,-26,-27,-28
32686,4910,2382,-232,-1309,165,32767,17672,5910,-5,-12,-20
32767,4934,2256,-240,-1317,153,32767,17818,5862,-13,-1,-1
32767,4804,1820,-288,-1313,164,32767,17680,5932,-25,12,18
32767,4512,1472,-275,-1296,187,32676,17544,6058,-31,16,12
32767,4298,1334,-228,-1283,183,32408,17430,6446,-36,-10,-4
32767,4218,1128,-180,-1303,189,32546,17448,6182,-30,-76,-27
32767,4114,1116,-123,-1331,203,32767,17586,5780,-6,-96,-41
32767,4110,946,-64,-1345,186,32767,17894,5578,40,-53,-24
32767,4256,514,-48,-1323,154,32767,18122,5750,43,3,20
32767,4420,-114,-71,-1241,134,32718,18038,6154,19,8,29
32767,4348,-272,-107,-1210,147,32698,17822,6148,-11,-9,17
32767,4090,-172,-125,-1223,166,32767,17660,5838,-20,-16,6
32767,3822,-314,-82,-1241,164,32767,17696,5552,-3,1,6
32767,3830,-706,-34,-1231,144,32767,17822,5836,2,27,16
32767,3938,-1266,-26,-1170,116,32674,17868,5922,-21,29,25
32767,4140,-1610,-41,-1086,105,32624,17786,6034,-57,7,9
32767,4162,-1730,-89,-1033,113,32524,17650,5922,-65,-6,-8
32767,4022,-1710,-86,-1010,125,32536,17604,5896,-65,-12,-5
32767,3812,-1814,-40,-1031,137,32714,17566,5792,-41,-9,3
32767,3762,-2310,-13,-1012,126,32767,17702,5722,-15,11,16
32767,3914,-2632,-1,-957,108,32767,17794,5910,7,33,13
32767,4050,-2948,-16,-910,89,32622,17858,5998,5,38,13
32767,4092,-3118,-42,-867,80,32420,17904,5892,-4,30,14
32767,4080,-3384,-56,-836,84,32448,17882,6016,-28,15,19
32767,3906,-3354,-74,-833,102,32532,17814,5930,-53,1,18
32767,3534,-3370,-65,-848,122,32468,17652,5966,-49,-7,13
32767,3416,-3618,-9,-847,117,32400,17644,5910,-24,-6,11
32767,3546,-4172,32,-805,79,32322,17668,6040,-5,-13,15
32767,3894,-4478,58,-743,45,32218,17624,6058,-9,-35,25
32767,4146,-4440,22,-696,51,32498,17446,6030,-17,-64,36
32767,4122,-4534,-27,-649,71,32767,17326,5764,17,-66,46
32767,3814,-4616,-32,-588,99,32767,17604,5906,75,-23,42
32767,3510,-4580,22,-577,127,32767,18000,5882,79,4,24
32767,3486,-4782,66,-624,103,32728,18226,5768,47,18,10
32767,3788,-5060,51,-637,31,32516,18278,5836,-8,31,2
32767,3966,-5130,26,-585,25,32340,18168,5896,-61,35,-4
32767,3920,-5394,19,-516,30,32158,17952,6000,-88,22,-17
32767,3814,-5454,23,-465,35,32026,17666,5982,-89,1,-38
32767,3698,-5406,39,-459,49,32196,17606,5792,-53,-10,-46
32767,3628,-5234,67,-500,60,32474,17836,5902,10,6,-39
32767,3818,-5538,83,-564,35,32540,18050,6006,33,19,-32
32767,3834,-5914,55,-573,8,32318,18170,5940,49,14,-24
32767,3886,-6334,15,-512,23,32186,18178,5946,46,-2,-12
32767,3804,-6216,7,-458,61,32110,18046,6046,28,-21,-3
32767,3662,-6146,41,-422,76,32250,17914,5978,18,-38,10
32767,3648,-6226,91,-418,56,32346,17848,5918,32,-44,12
32767,3814,-6472,104,-434,28,32430,17988,5872,38,-39,8
32767,4034,-6646,64,-448,24,32396,18170,5778,12,-34,11
32767,3990,-6860,17,-418,44,32330,18092,5922,-31,-40,17
32767,3864,-7028,6,-366,58,32326,17808,5954,-56,-57,20
32767,3658,-7088,6,-305,38,32364,17504,5868,-41,-71,10
32767,3668,-6974,22,-281,38,32556,18158,5818,44,-13,-18
32767,3676,-6946,63,-303,57,32420,18258,5796,23,-18,-12
32767,3722,-7034,103,-346,47,32404,18266,5830,-3,-25,1
32767,3824,-7238,126,-362,13,32374,17968,6090,-12,-22,1
32767,3938,-7532,124,-341,-11,32384,17812,5850,-2,-22,-13
32767,4086,-7590,97,-288,-11,32472,18000,5736,11,-12,-12
32767,4132,-7528,56,-261,-5,32470,18154,5846,10,3,-3
32767,4002,-7654,16,-276,20,32366,18176,5810,-19,1,1
32767,3726,-7668,22,-277,31,32230,18064,5924,-35,-12,-7
32767,3590,-7872,49,-256,13,32182,17916,6044,-45,-25,-15
32767,3770,-7984,62,-223,-7,32264,17776,5888,-31,-36,-17
32767,3980,-7952,53,-176,-2,32396,17890,5682,2,-35,-15
32767,4100,-7968,27,-145,14,32496,18018,5686,33,-16,-8
32767,4056,-7950,13,-134,36,32420,18152,5760,41,1,-4
32767,3934,-8040,7,-155,29,32344,18272,5764,41,15,0
32767,3854,-8146,-2,-155,10,32286,18324,5928,28,19,14
32767,3956,-8166,-42,-118,-7,32154,18350,5950,-1,11,20
32767,3952,-8144,-38,-88,-3,32156,18260,5948,-26,0,15
32767,3868,-8198,-20,-75,-10,32196,18132,5908,-45,-16,3
32767,3804,-8166,-15,-71,-15,32328,18120,5926,-51,-17,-2
32767,3802,-8064,-6,-60,-16,32238,18126,5976,-48,-8,-4
32767,3924,-8104,15,-39,-5,32162,18132,5914,-52,-9,1
32767,3928,-8150,21,-29,-14,32214,18096,5904,-60,-21,1
32767,3820,-8406,25,-19,-26,32328,17954,6072,-66,-25,-3
32767,3826,-8568,32,18,4,32184,17884,5980,-55,-35,-14
32767,3768,-8476,12,29,34,32120,17938,5810,-34,-40,-19
32767,3638,-8240,4,-3,38,32104,18116,5794,-28,-46,-13
32767,3692,-8322,27,-50,18,32242,18162,5864,-40,-42,-2
32767,3916,-8304,35,-62,-15,32266,18136,5794,-46,-32,0
32767,4148,-8304,14,-42,-27,32206,18078,5832,-49,-21,1
32767,4230,-8360,-23,0,-13,32168,18120,5830,-43,-27,-1
32767,4156,-8350,-64,64,8,32074,18146,5752,-54,-43,-1
32767,3938,-8184,-43,149,47,32092,18064,5750,-67,-47,2
32767,3798,-8120,6,154,46,32198,17984,5684,-69,-43,2
32767,3936,-8080,40,111,13,32206,17988,5828,-60,-34,12
32767,4186,-8026,50,66,-11,32104,17912,5764,-65,-33,10
32767,4358,-8088,31,59,-19,32032,17920,5736,-66,-42,0
32767,4358,-8158,-7,89,-30,32118,17772,5766,-59,-47,2
32767,4132,-8078,-23,127,-22,32140,17714,5834,-42,-47,-2
32767,4004,-7932,-2,137,-7,32158,17718,5690,-12,-44,-9
32767,3840,-7820,47,87,-6,32234,17934,5794,4,-34,-8
32767,3938,-7828,73,39,-25,32242,18074,5698,6,-25,-11
32767,4110,-7942,66,23,-52,32210,18070,5746,-14,-22,-10
32767,4142,-7946,26,32,-53,32156,18022,5796,-32,-31,-7
32767,4046,-7984,-19,62,-18,32044,17904,5798,-39,-39,-7
32767,3812,-7882,-21,85,33,32004,17872,5836,-43,-46,-9
32767,3632,-7854,18,58,55,32084,17956,5830,-46,-48,-14
32767,3734,-7866,56,-7,24,32160,18006,5762,-52,-54,-17
32767,4118,-8008,55,-53,-40,32208,18004,5826,-41,-52,-18
32767,4414,-8150,11,-37,-48,32144,17996,5844,-36,-46,-20
32767,4414,-8270,-42,2,-47,32090,17904,5760,-31,-40,-22
32767,4200,-8218,-58,44,-17,32174,17898,5788,-18,-36,-20
32767,3944,-8052,-43,51,4,32202,17912,5716,-2,-33,-11
32767,3968,-8056,-9,15,-20,32162,18024,5740,8,-36,-4
32767,4186,-8128,2,-8,-41,32074,18080,5774,2,-38,1
32767,4286,-8218,-13,24,-26,31932,18058,5708,1,-39,-1
32767,4232,-8080,-29,79,4,32000,18034,5816,-3,-44,-1
32767,4156,-8012,1,137,39,32036,18070,5732,5,-38,0
32767,4074,-7916,21,133,49,32214,18202,5642,19,-27,13
32767,3998,-7832,35,99,40,32202,18176,5786,7,-22,33
32767,4124,-7882,51,76,19,32208,18104,5750,-11,-22,37
32767,4276,-7932,50,69,11,32206,17986,5768,-31,-15,31
32767,4358,-7896,36,58,3,32066,17778,5836,-45,-12,4
32767,4344,-7960,5,56,-1,32036,17824,5792,-42,-24,-16
32767,4208,-7850,-19,72,5,32110,17888,5740,-39,-25,-19
32767,3966,-7806,-23,83,10,32036,17972,5820,-28,-8,-19
32767,4062,-7760,-9,62,4,32072,17958,5792,-26,-6,-23
32767,4142,-7766,1,41,-4,31970,18128,5790,-34,-14,-26
32767,4220,-7816,-10,33,-3,31972,18138,5782,-43,-24,-15
32767,4162,-7824,-34,39,3,31898,18132,5792,-51,-29,-17
32767,4020,-7856,-47,46,14,31928,18100,5658,-51,-28,-11
32767,4022,-7800,-45,48,30,31986,18058,5806,-34,-18,-1
32767,4088,-7734,-28,47,39,32030,17934,5656,-16,-8,11
32767,4156,-7736,-8,32,23,31984,17982,5684,14,7,17
32767,4192,-7808,-18,27,10,31944,18168,5680,67,-1,46
32767,4170,-7888,-33,33,13,31884,18244,5882,69,-12,72
32767,4098,-7890,-35,42,16,32004,18324,5826,69,-23,83
32767,4070,-7706,-36,38,11,32094,18344,5968,45,-29,92
32767,4040,-7786,-20,36,-3,32084,18362,5784,2,-34,89
32767,4094,-7804,-16,49,-13,32052,18266,5802,-46,-31,74
32767,4050,-7826,-14,64,-2,31962,18154,5834,-101,-35,60
32767,3874,-7672,28,72,25,31902,18006,5926,-141,-34,38
32767,3990,-7700,41,49,-5,31812,17818,5992,-167,-46,8
32767,4178,-7712,30,40,-17,31878,17718,5742,-157,-61,-3
32767,4256,-7664,4,50,-10,31930,17734,5740,-124,-58,-5
32767,4158,-7728,-34,65,-10,31866,17780,5868,-85,-58,3
32767,4086,-7596,-41,76,6,31700,17842,5878,-66,-70,19
32767,3958,-7636,-20,69,20,31814,17926,5910,-38,-74,21
32767,3956,-7690,6,30,-1,31984,18008,5938,-11,-69,16
32767,4108,-7604,4,21,-16,31942,18078,5842,-18,-73,2
32767,4196,-7678,-19,25,-14,31770,18206,5764,-35,-97,15
32767,4224,-7628,-33,41,2,31842,18198,5734,-50,-107,37
32767,4202,-7658,-36,60,17,31972,18262,5834,-75,-106,48
32767,4160,-7608,-32,60,26,32040,18216,5676,-110,-100,45
32767,4088,-7692,-37,50,11,32004,18190,5680,-152,-96,37
32767,4120,-7762,-48,44,-8,32008,17996,5864,-188,-111,32
32767,4134,-7618,-59,52,-19,32070,17700,5820,-221,-133,25
32767,4116,-7624,-47,51,-7,32224,17498,5738,-216,-142,15
32767,3996,-7574,-14,43,8,32390,17418,5596,-160,-119,9
32767,4130,-7630,9,27,-9,32360,17506,5594,-118,-95,9
32767,4310,-7572,8,13,-34,32198,17622,5590,-88,-73,11
32767,4488,-7542,-17,17,-37,32224,17818,5532,-72,-53,22
32767,4396,-7572,-36,29,-37,32168,17892,5594,-80,-32,35
32767,4228,-7562,-21,32,-32,32168,17884,5750,-98,-16,44
32767,4202,-7606,20,36,-37,32062,17890,5916,-116,-20,47
32767,4314,-7438,45,16,-51,31918,17702,6044,-145,-43,46
32767,4428,-7478,27,-25,-82,31912,17282,5880,-152,-71,20
32767,4550,-7610,-12,-38,-84,31974,17198,5888,-115,-97,15
32767,4378,-7682,-38,-35,-55,32020,17280,5874,-83,-99,20
32767,4266,-7638,-74,-31,-34,32160,17334,5798,-58,-104,17
32767,4114,-7578,-71,-20,-10,32304,17494,5736,-57,-95,10
32767,4184,-7506,-44,-30,-2,32286,17436,6072,-73,-92,0
32767,4278,-7734,-38,-47,3,32236,17106,6294,-89,-126,-26
32767,4312,-7754,-39,-41,23,32268,16740,5912,-52,-172,-105
32767,4358,-7794,-30,-32,32,32544,16872,5718,40,-183,-137
32767,4342,-7768,-12,-17,43,32706,17342,5548,121,-170,-122
32767,4404,-7828,-16,-14,25,32767,17828,5396,166,-129,-89
32767,4494,-7916,-16,-9,2,32767,18136,5370,173,-83,-41
32767,4528,-7858,-11,5,-2,32748,18186,5536,158,-47,-1
32767,4458,-7924,-15,21,-12,32636,18054,5708,148,-16,12
32767,4382,-7822,6,30,-36,32448,17890,5784,137,-8,18
32767,4456,-7942,46,32,-42,32404,17736,6034,145,-6,31
32767,4432,-7884,78,36,-54,32344,17832,6050,172,-4,39
32767,4492,-7942,85,44,-83,32132,17954,6178,174,-14,47
32767,4642,-7948,84,59,-97,31994,17944,6464,135,-45,58
32767,4686,-8054,54,60,-93,31824,18000,6702,99,-88,51
32767,4596,-7964,1,69,-78,31772,18040,6632,70,-155,16
32767,4366,-7884,-31,83,-54,31832,18108,6332,25,-206,-14
32767,4252,-7904,-39,93,-33,32014,18318,6260,-13,-258,-26
32767,4282,-7826,-14,128,-2,32360,18298,6068,-136,-288,-37
32767,4288,-7790,7,158,24,32546,18220,5836,-187,-286,-39
32767,4410,-7702,22,189,39,32588,18144,6068,-202,-274,-38
32767,4448,-7598,37,202,42,32558,17816,6456,-195,-301,-49
32767,4486,-7642,35,202,26,32767,17530,5580,-154,-355,-66
32767,4542,-7648,27,217,15,32767,17642,5224,-75,-297,-61
32767,4544,-7638,13,244,17,32767,17728,5200,12,-200,-30
32767,4468,-7560,2,278,14,32767,17982,5424,79,-113,4
32767,4640,-7434,19,309,-25,32767,18002,5906,118,-74,27
32767,4728,-7338,31,323,-41,32722,17798,6374,137,-99,19
32767,4840,-7234,3,327,-42,32767,17558,5996,177,-150,5
32767,4836,-7184,-38,354,-40,32767,17680,5562,220,-134,4
32767,4808,-6984,-78,398,-28,32767,18156,5812,282,-54,18
32767,4666,-6908,-105,435,-9,32767,18442,5982,287,-36,11
32767,4554,-6772,-118,455,-9,32767,18698,6122,244,-62,3
32767,4498,-6726,-112,457,-14,32767,18702,5880,155,-85,4
32767,4490,-6464,-97,446,9,32767,18564,5722,71,-87,3
32767,4498,-6412,-87,428,35,32767,18460,5670,24,-44,-2
32767,4336,-6280,-67,417,34,32767,18410,5880,10,-11,-17
32767,4412,-6236,-58,414,9,32767,18560,5886,-6,4,-23
32767,4434,-6258,-51,415,-11,32628,18404,6480,-65,-25,-23
32767,4528,-6180,-49,414,-18,32672,17896,6464,-91,-66,-46
32767,4518,-6054,-49,414,-11,32767,17790,5720,-53,-93,-77
32767,4518,-6040,-37,439,-20,32767,17996,5514,40,-48,-70
32767,4554,-5972,-55,506,-64,32767,18516,5960,126,23,-49
32767,4566,-5888,-68,571,-75,32767,18928,6126,112,29,-44
32767,4532,-5824,-61,628,-70,32726,18968,6212,32,3,-49
32767,4514,-5624,-72,677,-73,32544,18604,6380,-53,-28,-66
32767,4546,-5552,-96,742,-82,32767,18338,6056,-94,-76,-76
32767,4594,-5368,-127,812,-80,32767,18318,5786,-62,-74,-78
32767,4618,-5224,-171,855,-69,32767,18452,5884,-17,-36,-65
32767,4550,-5096,-223,902,-61,32767,18604,6184,-3,-27,-43
32767,4414,-4786,-197,976,-22,32767,18514,6242,-46,-52,-38
32767,4324,-4378,-120,986,4,32767,18178,6046,-113,-81,-54
32767,4424,-4082,-45,953,-17,32767,17936,6196,-112,-92,-56
32767,4616,-3734,6,910,-55,32767,17944,6210,-21,-86,-60
32767,4860,-3486,10,875,-73,32767,18478,6008,76,-72,-63
32767,4884,-3294,-10,868,-80,32767,18850,6136,85,-68,-44
32767,4858,-3048,-15,878,-99,32767,18886,6088,14,-80,-27
32767,4752,-2672,3,869,-121,32767,18694,5844,-69,-86,-28
32767,4752,-2434,21,859,-136,32767,18546,5672,-73,-82,-23
32767,4728,-2128,46,869,-131,32767,18456,5612,-54,-48,-8
32767,4646,-1814,56,885,-127,32767,18502,5702,-24,-19,1
32767,4692,-1640,50,886,-136,32767,18480,5844,-44,-11,-2
32767,4864,-1516,22,927,-130,32767,18294,5916,-70,-8,-8
32767,4924,-1378,-26,1017,-115,32767,18112,6012,-51,-7,3
32767,4954,-1256,-62,1092,-116,32767,18090,6236,14,-9,12
32767,5266,-1022,-105,1126,-133,32767,18272,5924,47,-15,0
32767,5426,-856,-179,1129,-136,32767,18494,6040,56,-17,8
32767,5268,-676,-242,1158,-109,32767,18566,6128,41,-14,15
32767,5100,-536,-229,1191,-102,32767,18592,5938,20,-28,15
